SF_Version 0.9.3
19-Aug-2024 12:36:46
Temp(K) Pressure(MPa) Temp(K) Pressure(MPa)  Points 
357.0233 2300.0000 270.0000 596.3811 4279.0000
###########################################################
D H (J/kg)  D S (J/(K*kg)
403474.0586 1130.1057
403457.7146 1130.1093
403449.6390 1130.1110
403441.3607 1130.1128
403424.9969 1130.1164
403408.6281 1130.1199
403392.2541 1130.1234
403375.8750 1130.1269
403359.4908 1130.1304
403344.6829 1130.1336
403343.1005 1130.1339
403326.6965 1130.1374
403310.2873 1130.1409
403293.8729 1130.1444
403277.4535 1130.1478
403261.0288 1130.1513
403244.5990 1130.1548
403239.5951 1130.1558
403228.1573 1130.1582
403211.7076 1130.1616
403195.2527 1130.1651
403178.7926 1130.1685
403162.3273 1130.1719
403145.8568 1130.1753
403134.3754 1130.1777
403129.3781 1130.1787
403112.8877 1130.1821
403096.3920 1130.1854
403079.8910 1130.1888
403063.3849 1130.1922
403046.8735 1130.1955
403030.3569 1130.1989
403029.0228 1130.1992
403013.8262 1130.2022
402997.2895 1130.2055
402980.7475 1130.2089
402964.2003 1130.2122
402947.6478 1130.2155
402931.0901 1130.2188
402923.5361 1130.2203
402914.5218 1130.2221
402897.9439 1130.2253
402881.3607 1130.2286
402864.7722 1130.2319
402848.1785 1130.2351
402831.5794 1130.2384
402817.9150 1130.2411
402814.9733 1130.2416
402798.3540 1130.2449
402781.7293 1130.2481
402765.0994 1130.2513
402748.4641 1130.2545
402731.8234 1130.2577
402715.1775 1130.2609
402712.1583 1130.2615
402698.5183 1130.2641
402681.8520 1130.2672
402665.1803 1130.2704
402648.5033 1130.2735
402631.8209 1130.2767
402615.1332 1130.2798
402606.2654 1130.2815
402598.4356 1130.2829
402581.7274 1130.2861
402565.0139 1130.2892
402548.2949 1130.2923
402531.5706 1130.2954
402514.8408 1130.2984
402500.2357 1130.3011
402498.1045 1130.3015
402481.3542 1130.3046
402464.5986 1130.3076
402447.8375 1130.3107
402431.0710 1130.3137
402414.2991 1130.3168
402397.5217 1130.3198
402394.0680 1130.3204
402380.7312 1130.3228
402363.9333 1130.3258
402347.1299 1130.3288
402330.3210 1130.3318
402313.5067 1130.3348
402296.6869 1130.3377
402287.7618 1130.3393
402279.8570 1130.3407
402263.0166 1130.3436
402246.1706 1130.3466
402229.3192 1130.3495
402212.4622 1130.3524
402195.5998 1130.3554
402181.3166 1130.3578
402178.7303 1130.3583
402161.8471 1130.3612
402144.9584 1130.3640
402128.0642 1130.3669
402111.1645 1130.3698
402094.2592 1130.3727
402077.3483 1130.3755
402074.7314 1130.3760
402060.4237 1130.3784
402043.4921 1130.3812
402026.5549 1130.3840
402009.6121 1130.3868
401992.6638 1130.3896
401975.7099 1130.3924
401968.0053 1130.3937
401958.7451 1130.3952
401941.7703 1130.3980
401924.7899 1130.4008
401907.8039 1130.4035
401890.8123 1130.4063
401873.8151 1130.4090
401861.1382 1130.4111
401856.8098 1130.4118
401839.7916 1130.4145
401822.7678 1130.4172
401805.7384 1130.4199
401788.7034 1130.4226
401771.6627 1130.4253
401754.6164 1130.4280
401754.1292 1130.4281
401737.5549 1130.4306
401720.4876 1130.4333
401703.4145 1130.4359
401686.3358 1130.4386
401669.2515 1130.4412
401652.1615 1130.4438
401646.9772 1130.4446
401635.0589 1130.4464
401617.9478 1130.4490
401600.8309 1130.4516
401583.7084 1130.4542
401566.5801 1130.4568
401549.4462 1130.4594
401539.6821 1130.4608
401532.3023 1130.4619
401515.1471 1130.4644
401497.9863 1130.4670
401480.8197 1130.4695
401463.6473 1130.4720
401446.4693 1130.4745
401432.2433 1130.4766
401429.2838 1130.4770
401412.0844 1130.4795
401394.8793 1130.4820
401377.6685 1130.4844
401360.4519 1130.4869
401343.2295 1130.4894
401326.0014 1130.4918
401324.6601 1130.4920
401308.7584 1130.4942
401291.5089 1130.4966
401274.2536 1130.4990
401256.9925 1130.5014
401239.7257 1130.5038
401222.4530 1130.5062
401216.9315 1130.5070
401205.1678 1130.5086
401187.8737 1130.5109
401170.5738 1130.5133
401153.2680 1130.5156
401135.9564 1130.5180
401118.6390 1130.5203
401109.0576 1130.5216
401101.3114 1130.5226
401083.9725 1130.5249
401066.6277 1130.5272
401049.2771 1130.5295
401031.9206 1130.5317
401014.5583 1130.5340
401001.0376 1130.5358
400997.1879 1130.5363
400979.8040 1130.5385
400962.4142 1130.5407
400945.0185 1130.5429
400927.6169 1130.5452
400910.2095 1130.5474
400892.8711 1130.5496
400892.7961 1130.5496
400875.3670 1130.5517
400857.9320 1130.5539
400840.4911 1130.5561
400823.0442 1130.5582
400805.5915 1130.5603
400788.1328 1130.5625
400784.5571 1130.5629
400770.6603 1130.5646
400753.1799 1130.5667
400735.6936 1130.5688
400718.2013 1130.5709
400700.7030 1130.5730
400683.1988 1130.5750
400676.0955 1130.5759
400665.6828 1130.5771
400648.1567 1130.5791
400630.6248 1130.5812
400613.0868 1130.5832
400595.5429 1130.5852
400577.9930 1130.5872
400567.4859 1130.5884
400560.4331 1130.5892
400542.8613 1130.5912
400525.2835 1130.5932
400507.6997 1130.5952
400490.1099 1130.5971
400472.5141 1130.5991
400458.7279 1130.6006
400454.9101 1130.6010
400437.2923 1130.6029
400419.6685 1130.6048
400402.0387 1130.6067
400384.4028 1130.6086
400366.7610 1130.6105
400349.8209 1130.6123
400349.1126 1130.6124
400331.4487 1130.6142
400313.7787 1130.6161
400296.1027 1130.6179
400278.4206 1130.6198
400260.7324 1130.6216
400243.0382 1130.6234
400240.7644 1130.6236
400225.3292 1130.6252
400207.6129 1130.6270
400189.8904 1130.6287
400172.1619 1130.6305
400154.4273 1130.6323
400136.6866 1130.6340
400131.5580 1130.6345
400118.9327 1130.6357
400101.1698 1130.6375
400083.4008 1130.6392
400065.6257 1130.6409
400047.8445 1130.6426
400030.0571 1130.6443
400022.2015 1130.6450
400012.2581 1130.6459
399994.4484 1130.6476
399976.6327 1130.6492
399958.8108 1130.6509
399940.9827 1130.6525
399923.1486 1130.6541
399912.6945 1130.6551
399905.3041 1130.6557
399887.4475 1130.6573
399869.5849 1130.6589
399851.7160 1130.6605
399833.8410 1130.6620
399815.9598 1130.6636
399803.0367 1130.6647
399798.0696 1130.6651
399780.1660 1130.6666
399762.2562 1130.6681
399744.3403 1130.6697
399726.4181 1130.6712
399708.4897 1130.6726
399693.2277 1130.6739
399690.5536 1130.6741
399672.6028 1130.6756
399654.6457 1130.6770
399636.6824 1130.6785
399618.7129 1130.6799
399600.7371 1130.6813
399583.2673 1130.6827
399582.7549 1130.6827
399564.7566 1130.6841
399546.7521 1130.6855
399528.7413 1130.6869
399510.7243 1130.6882
399492.7010 1130.6896
399474.6715 1130.6910
399473.1549 1130.6911
399456.6265 1130.6923
399438.5743 1130.6936
399420.5159 1130.6949
399402.4512 1130.6962
399384.3802 1130.6975
399366.3030 1130.6988
399362.8903 1130.6990
399348.2112 1130.7000
399330.1113 1130.7013
399312.0051 1130.7025
399293.8925 1130.7037
399275.7737 1130.7050
399257.6485 1130.7062
399252.4735 1130.7065
399239.5098 1130.7074
399221.3619 1130.7085
399203.2077 1130.7097
399185.0472 1130.7109
399166.8803 1130.7120
399148.7071 1130.7132
399141.9041 1130.7136
399130.5212 1130.7143
399112.3251 1130.7154
399094.1228 1130.7165
399075.9140 1130.7176
399057.6990 1130.7187
399039.4775 1130.7198
399031.1819 1130.7203
399021.2442 1130.7208
399002.9999 1130.7219
398984.7492 1130.7229
398966.4921 1130.7239
398948.2286 1130.7249
398929.9588 1130.7260
398920.3066 1130.7265
398911.6778 1130.7270
398893.3850 1130.7279
398875.0858 1130.7289
398856.7803 1130.7298
398838.4683 1130.7308
398820.1499 1130.7317
398809.2782 1130.7323
398801.8210 1130.7327
398783.4796 1130.7336
398765.1317 1130.7345
398746.7775 1130.7353
398728.4168 1130.7362
398710.0497 1130.7371
398698.0964 1130.7377
398691.6726 1130.7379
398673.2825 1130.7388
398654.8858 1130.7396
398636.4828 1130.7404
398618.0732 1130.7412
398599.6573 1130.7420
398586.7610 1130.7426
398581.2318 1130.7428
398562.7927 1130.7436
398544.3471 1130.7443
398525.8950 1130.7451
398507.4365 1130.7458
398488.9715 1130.7465
398475.2718 1130.7471
398470.4974 1130.7473
398452.0091 1130.7480
398433.5144 1130.7486
398415.0132 1130.7493
398396.5056 1130.7500
398377.9914 1130.7506
398363.6288 1130.7511
398359.4684 1130.7513
398340.9309 1130.7519
398322.3869 1130.7525
398303.8364 1130.7531
398285.2794 1130.7537
398266.7159 1130.7543
398251.8318 1130.7548
398248.1438 1130.7549
398229.5569 1130.7554
398210.9635 1130.7560
398192.3636 1130.7565
398173.7571 1130.7570
398155.1440 1130.7575
398139.8807 1130.7580
398136.5226 1130.7581
398117.8862 1130.7585
398099.2432 1130.7590
398080.5936 1130.7595
398061.9375 1130.7599
398043.2748 1130.7604
398027.7753 1130.7607
398024.6039 1130.7608
398005.9177 1130.7612
397987.2250 1130.7616
397968.5257 1130.7620
397949.8198 1130.7624
397931.1073 1130.7627
397915.5156 1130.7630
397912.3865 1130.7631
397893.6505 1130.7634
397874.9079 1130.7638
397856.1587 1130.7641
397837.4029 1130.7644
397818.6404 1130.7647
397803.1016 1130.7649
397799.8696 1130.7650
397781.0836 1130.7652
397762.2909 1130.7655
397743.4917 1130.7657
397724.6858 1130.7660
397705.8733 1130.7662
397690.5331 1130.7664
397687.0522 1130.7664
397668.2160 1130.7666
397649.3732 1130.7668
397630.5237 1130.7669
397611.6676 1130.7671
397592.8048 1130.7673
397577.8101 1130.7674
397573.9333 1130.7674
397555.0468 1130.7675
397536.1536 1130.7676
397517.2538 1130.7677
397498.3473 1130.7678
397479.4342 1130.7679
397464.9326 1130.7679
397460.5119 1130.7680
397441.5749 1130.7680
397422.6313 1130.7680
397403.6810 1130.7680
397384.7240 1130.7681
397365.7603 1130.7681
397351.9005 1130.7681
397346.7871 1130.7681
397327.7996 1130.7680
397308.8053 1130.7680
397289.8044 1130.7679
397270.7967 1130.7679
397251.7823 1130.7678
397238.7138 1130.7678
397232.7580 1130.7677
397213.7197 1130.7676
397194.6747 1130.7675
397175.6230 1130.7674
397156.5645 1130.7672
397137.4993 1130.7671
397125.3726 1130.7670
397118.4235 1130.7669
397099.3344 1130.7668
397080.2385 1130.7666
397061.1358 1130.7664
397042.0264 1130.7662
397022.9103 1130.7659
397011.8767 1130.7658
397003.7829 1130.7657
396984.6427 1130.7654
396965.4958 1130.7652
396946.3420 1130.7649
396927.1816 1130.7646
396908.0143 1130.7643
396898.2262 1130.7642
396888.8351 1130.7640
396869.6437 1130.7637
396850.4456 1130.7633
396831.2407 1130.7630
396812.0290 1130.7626
396792.8105 1130.7623
396784.4212 1130.7621
396773.5792 1130.7619
396754.3366 1130.7615
396735.0871 1130.7610
396715.8308 1130.7606
396696.5677 1130.7602
396677.2978 1130.7597
396670.4616 1130.7596
396658.0143 1130.7593
396638.7202 1130.7588
396619.4193 1130.7583
396600.1116 1130.7578
396580.7970 1130.7573
396561.4756 1130.7568
396556.3475 1130.7566
396542.1395 1130.7562
396522.7939 1130.7557
396503.4413 1130.7551
396484.0820 1130.7545
396464.7157 1130.7539
396445.3427 1130.7533
396442.0789 1130.7532
396425.9539 1130.7527
396406.5565 1130.7521
396387.1523 1130.7514
396367.7411 1130.7508
396348.3231 1130.7501
396328.8983 1130.7494
396327.6559 1130.7494
396309.4566 1130.7487
396290.0073 1130.7480
396270.5512 1130.7473
396251.0882 1130.7465
396231.6182 1130.7458
396213.0785 1130.7451
396212.1409 1130.7450
396192.6466 1130.7443
396173.1454 1130.7435
396153.6372 1130.7427
396134.1222 1130.7419
396114.6002 1130.7410
396098.3466 1130.7404
396095.0695 1130.7402
396075.5231 1130.7393
396055.9697 1130.7385
396036.4094 1130.7376
396016.8422 1130.7367
395997.2681 1130.7358
395983.4605 1130.7352
395977.6838 1130.7349
395958.0851 1130.7340
395938.4795 1130.7330
395918.8669 1130.7321
395899.2474 1130.7311
395879.6210 1130.7301
395868.4202 1130.7296
395859.9829 1130.7291
395840.3319 1130.7281
395820.6739 1130.7271
395801.0089 1130.7260
395781.3369 1130.7250
395761.6580 1130.7240
395753.2258 1130.7235
395741.9660 1130.7229
395722.2624 1130.7218
395702.5518 1130.7207
395682.8343 1130.7196
395663.1098 1130.7184
395643.3783 1130.7173
395637.8774 1130.7170
395623.6320 1130.7162
395603.8758 1130.7150
395584.1126 1130.7138
395564.3424 1130.7126
395544.5651 1130.7114
395524.7809 1130.7102
395522.3751 1130.7100
395504.9802 1130.7090
395485.1712 1130.7077
395465.3552 1130.7064
395445.5321 1130.7052
395425.7021 1130.7039
395406.7188 1130.7027
395405.8645 1130.7026
395386.0096 1130.7013
395366.1477 1130.6999
395346.2788 1130.6986
395326.4028 1130.6972
395306.5197 1130.6959
395290.9086 1130.6948
395286.6273 1130.6945
395266.7194 1130.6931
395246.8045 1130.6917
395226.8824 1130.6903
395206.9533 1130.6888
395187.0172 1130.6874
395174.9447 1130.6865
395167.0697 1130.6860
395147.1087 1130.6845
395127.1405 1130.6830
395107.1653 1130.6815
395087.1830 1130.6800
395067.1936 1130.6784
395058.8272 1130.6778
395047.1908 1130.6769
395027.1765 1130.6753
395007.1550 1130.6738
394987.1264 1130.6722
394967.0908 1130.6706
394947.0480 1130.6690
394942.5563 1130.6686
394926.9897 1130.6674
394906.9219 1130.6657
394886.8470 1130.6641
394866.7650 1130.6624
394846.6758 1130.6607
394826.5796 1130.6591
394826.1321 1130.6590
394806.4656 1130.6573
394786.3442 1130.6556
394766.2157 1130.6539
394746.0801 1130.6521
394725.9373 1130.6504
394709.5542 1130.6490
394705.7853 1130.6486
394685.6174 1130.6468
394665.4423 1130.6450
394645.2601 1130.6432
394625.0708 1130.6414
394604.8742 1130.6396
394592.8232 1130.6385
394584.6661 1130.6377
394564.4444 1130.6358
394544.2155 1130.6339
394523.9794 1130.6320
394503.7362 1130.6301
394483.4857 1130.6282
394475.9391 1130.6275
394463.2213 1130.6263
394442.9456 1130.6243
394422.6627 1130.6224
394402.3727 1130.6204
394382.0754 1130.6184
394361.7710 1130.6164
394358.9021 1130.6161
394341.4499 1130.6144
394321.1202 1130.6123
394300.7832 1130.6103
394280.4390 1130.6082
394260.0876 1130.6062
394241.7121 1130.6043
394239.7279 1130.6041
394219.3511 1130.6020
394198.9671 1130.5998
394178.5759 1130.5977
394158.1775 1130.5956
394137.7718 1130.5934
394124.3690 1130.5920
394117.3551 1130.5912
394096.9240 1130.5890
394076.4856 1130.5868
394056.0400 1130.5846
394035.5872 1130.5824
394015.1271 1130.5802
394006.8734 1130.5793
393994.6532 1130.5779
393974.1676 1130.5756
393953.6747 1130.5733
393933.1746 1130.5710
393912.6673 1130.5687
393892.1526 1130.5664
393889.2253 1130.5661
393871.6212 1130.5641
393851.0810 1130.5617
393830.5336 1130.5593
393809.9788 1130.5570
393789.4167 1130.5546
393771.4246 1130.5525
393768.8460 1130.5522
393748.2584 1130.5497
393727.6634 1130.5473
393707.0612 1130.5448
393686.4516 1130.5424
393665.8348 1130.5399
393653.4712 1130.5384
393645.2062 1130.5374
393624.5636 1130.5349
393603.9138 1130.5323
393583.2566 1130.5298
393562.5922 1130.5273
393541.9204 1130.5247
393535.3658 1130.5239
393521.2337 1130.5221
393500.5361 1130.5195
393479.8313 1130.5169
393459.1191 1130.5143
393438.3995 1130.5116
393417.6726 1130.5090
393417.1082 1130.5089
393396.9276 1130.5063
393376.1749 1130.5036
393355.4149 1130.5009
393334.6475 1130.4982
393313.8727 1130.4955
393298.6981 1130.4935
393293.0876 1130.4928
393272.2870 1130.4900
393251.4791 1130.4872
393230.6637 1130.4845
393209.8410 1130.4817
393189.0109 1130.4789
393180.1361 1130.4777
393168.1670 1130.4760
393147.3110 1130.4732
393126.4476 1130.4703
393105.5768 1130.4675
393084.6986 1130.4646
393063.8130 1130.4617
393061.4224 1130.4614
393042.9101 1130.4588
393021.9986 1130.4559
393001.0796 1130.4529
392980.1532 1130.4500
392959.2194 1130.4470
392942.5565 1130.4446
392938.2759 1130.4440
392917.3161 1130.4410
392896.3488 1130.4380
392875.3741 1130.4350
392854.3920 1130.4319
392833.4025 1130.4289
392823.5389 1130.4274
392812.3995 1130.4258
392791.3839 1130.4227
392770.3608 1130.4196
392749.3302 1130.4165
392728.2922 1130.4134
392707.2467 1130.4102
392704.3697 1130.4098
392686.1841 1130.4071
392665.1125 1130.4039
392644.0334 1130.4007
392622.9469 1130.3975
392601.8528 1130.3943
392585.0487 1130.3917
392580.7490 1130.3911
392559.6288 1130.3878
392538.5011 1130.3845
392517.3658 1130.3813
392496.2231 1130.3780
392475.0729 1130.3747
392465.5761 1130.3732
392453.9090 1130.3714
392432.7325 1130.3680
392411.5485 1130.3647
392390.3570 1130.3613
392369.1580 1130.3579
392347.9514 1130.3545
392345.9523 1130.3542
392326.7272 1130.3511
392305.4943 1130.3477
392284.2539 1130.3443
392263.0059 1130.3408
392241.7505 1130.3373
392226.1767 1130.3348
392220.4844 1130.3339
392199.2025 1130.3304
392177.9131 1130.3268
392156.6162 1130.3233
392135.3116 1130.3198
392113.9995 1130.3162
392106.2499 1130.3149
392092.6727 1130.3126
392071.3342 1130.3090
392049.9880 1130.3054
392028.6344 1130.3018
392007.2731 1130.2982
391986.1719 1130.2946
391985.9041 1130.2946
391964.5163 1130.2909
391943.1209 1130.2872
391921.7180 1130.2835
391900.3074 1130.2798
391878.8892 1130.2761
391865.9423 1130.2738
391857.4590 1130.2724
391836.0142 1130.2686
391814.5619 1130.2648
391793.1019 1130.2610
391771.6343 1130.2572
391750.1591 1130.2534
391745.5616 1130.2526
391728.6673 1130.2496
391707.1655 1130.2458
391685.6560 1130.2419
391664.1388 1130.2380
391642.6140 1130.2341
391625.0298 1130.2310
391621.0795 1130.2302
391599.5280 1130.2263
391577.9689 1130.2224
391556.4021 1130.2184
391534.8276 1130.2145
391513.2455 1130.2105
391504.3466 1130.2089
391491.6490 1130.2065
391470.0401 1130.2025
391448.4235 1130.1984
391426.7992 1130.1944
391405.1673 1130.1904
391383.5276 1130.1863
391383.5127 1130.1863
391361.8689 1130.1822
391340.2024 1130.1781
391318.5282 1130.1740
391296.8463 1130.1698
391275.1567 1130.1657
391262.5271 1130.1633
391253.4546 1130.1615
391231.7381 1130.1573
391210.0139 1130.1531
391188.2819 1130.1489
391166.5422 1130.1447
391144.7948 1130.1405
391141.3908 1130.1398
391123.0299 1130.1362
391101.2556 1130.1319
391079.4734 1130.1276
391057.6835 1130.1233
391035.8859 1130.1190
391020.1031 1130.1159
391014.0773 1130.1147
390992.2526 1130.1103
390970.4201 1130.1060
390948.5799 1130.1016
390926.7319 1130.0972
390904.8761 1130.0928
390898.6644 1130.0915
390883.0043 1130.0884
390861.1214 1130.0839
390839.2307 1130.0794
390817.3323 1130.0750
390795.4260 1130.0705
390777.0747 1130.0667
390773.5100 1130.0660
390751.5765 1130.0615
390729.6353 1130.0569
390707.6862 1130.0524
390685.7293 1130.0478
390663.7645 1130.0432
390655.3337 1130.0415
390641.7848 1130.0386
390619.7929 1130.0340
390597.7930 1130.0294
390575.7854 1130.0247
390553.7699 1130.0201
390533.4417 1130.0157
390531.7456 1130.0154
390509.7028 1130.0107
390487.6521 1130.0060
390465.5935 1130.0012
390443.5271 1129.9965
390421.4528 1129.9917
390411.3983 1129.9896
390399.3643 1129.9870
390377.2626 1129.9822
390355.1530 1129.9774
390333.0356 1129.9725
390310.9102 1129.9677
390289.2040 1129.9630
390288.7767 1129.9629
390266.6239 1129.9580
390244.4632 1129.9531
390222.2945 1129.9482
390200.1180 1129.9433
390177.9335 1129.9383
390166.8579 1129.9359
390155.7352 1129.9334
390133.5232 1129.9284
390111.3032 1129.9234
390089.0754 1129.9184
390066.8395 1129.9134
390044.5957 1129.9084
390044.3611 1129.9083
390022.3324 1129.9033
390000.0610 1129.8983
389977.7816 1129.8932
389955.4943 1129.8881
389933.1990 1129.8830
389921.7124 1129.8804
389910.8900 1129.8779
389888.5671 1129.8727
389866.2361 1129.8675
389843.8971 1129.8624
389821.5502 1129.8572
389799.1952 1129.8520
389798.9127 1129.8519
389776.8207 1129.8467
389754.4380 1129.8415
389732.0472 1129.8362
389709.6485 1129.8310
389687.2417 1129.8257
389675.9611 1129.8230
389664.8211 1129.8204
389642.3865 1129.8150
389619.9438 1129.8097
389597.4932 1129.8043
389575.0344 1129.7990
389552.8583 1129.7937
389552.5675 1129.7936
389530.0809 1129.7882
389507.5862 1129.7828
389485.0835 1129.7773
389462.5727 1129.7719
389440.0538 1129.7664
389429.6036 1129.7639
389417.5205 1129.7609
389394.9736 1129.7554
389372.4187 1129.7499
389349.8556 1129.7443
389327.2844 1129.7388
389306.1975 1129.7336
389304.7044 1129.7332
389282.1052 1129.7276
389259.4979 1129.7220
389236.8825 1129.7164
389214.2589 1129.7108
389191.6272 1129.7051
389182.6394 1129.7029
389168.9803 1129.6994
389146.3205 1129.6937
389123.6526 1129.6880
389100.9765 1129.6823
389078.2922 1129.6766
389058.9298 1129.6717
389055.5980 1129.6708
389032.8856 1129.6651
389010.1650 1129.6593
388987.4363 1129.6535
388964.6993 1129.6476
388941.9541 1129.6418
388935.0680 1129.6400
388919.1925 1129.6360
388896.4191 1129.6301
388873.6375 1129.6242
388850.8477 1129.6183
388828.0497 1129.6124
388811.0544 1129.6079
388805.2404 1129.6064
388782.4141 1129.6005
388759.5795 1129.5945
388736.7367 1129.5885
388713.8856 1129.5825
388691.0263 1129.5765
388686.8888 1129.5754
388668.1491 1129.5704
388645.2614 1129.5644
388622.3654 1129.5583
388599.4612 1129.5522
388576.5487 1129.5461
388562.5710 1129.5424
388553.6233 1129.5400
388530.6824 1129.5338
388507.7331 1129.5276
388484.7756 1129.5215
388461.8098 1129.5153
388438.8357 1129.5091
388438.1013 1129.5089
388415.8417 1129.5028
388392.8390 1129.4966
388369.8280 1129.4903
388346.8087 1129.4840
388323.7811 1129.4777
388313.4789 1129.4749
388300.7385 1129.4714
388277.6823 1129.4651
388254.6177 1129.4587
388231.5448 1129.4524
388208.4635 1129.4460
388188.7046 1129.4405
388185.3722 1129.4396
388162.2622 1129.4332
388139.1438 1129.4267
388116.0171 1129.4203
388092.8821 1129.4138
388069.7386 1129.4073
388063.7777 1129.4056
388046.5779 1129.4008
388023.4056 1129.3943
388000.2250 1129.3877
387977.0360 1129.3812
387953.8385 1129.3746
387938.6984 1129.3703
387930.6285 1129.3680
387907.4023 1129.3614
387884.1676 1129.3547
387860.9244 1129.3481
387837.6729 1129.3414
387814.4129 1129.3348
387813.4667 1129.3345
387791.1329 1129.3281
387767.8440 1129.3213
387744.5467 1129.3146
387721.2408 1129.3078
387697.9266 1129.3011
387688.0822 1129.2982
387674.5969 1129.2943
387651.2536 1129.2875
387627.9018 1129.2807
387604.5416 1129.2738
387581.1729 1129.2670
387562.5453 1129.2615
387557.7932 1129.2601
387534.3954 1129.2532
387510.9891 1129.2463
387487.5743 1129.2393
387464.1510 1129.2324
387440.7192 1129.2254
387436.8557 1129.2243
387417.2688 1129.2184
387393.8078 1129.2114
387370.3383 1129.2044
387346.8602 1129.1974
387323.3737 1129.1903
387311.0132 1129.1866
387299.8728 1129.1833
387276.3570 1129.1762
387252.8326 1129.1690
387229.2997 1129.1619
387205.7582 1129.1548
387185.0182 1129.1485
387182.2067 1129.1476
387158.6359 1129.1404
387135.0566 1129.1332
387111.4686 1129.1260
387087.8721 1129.1188
387064.2669 1129.1115
387058.8702 1129.1099
387040.6438 1129.1043
387017.0093 1129.0970
386993.3661 1129.0897
386969.7144 1129.0823
386946.0540 1129.0750
386932.5694 1129.0708
386922.3798 1129.0676
386898.6900 1129.0602
386874.9915 1129.0528
386851.2844 1129.0454
386827.5687 1129.0380
386806.1158 1129.0313
386803.8431 1129.0306
386780.0978 1129.0231
386756.3439 1129.0156
386732.5813 1129.0081
386708.8100 1129.0006
386685.0301 1128.9930
386679.5092 1128.9913
386661.2321 1128.9854
386637.4225 1128.9779
386613.6043 1128.9703
386589.7773 1128.9626
386565.9417 1128.9550
386552.7496 1128.9508
386542.0919 1128.9474
386518.2266 1128.9397
386494.3525 1128.9320
386470.4698 1128.9243
386446.5783 1128.9165
386425.8372 1128.9098
386422.6765 1128.9088
386398.7553 1128.9010
386374.8253 1128.8932
386350.8866 1128.8854
386326.9391 1128.8776
386302.9829 1128.8698
386298.7718 1128.8684
386279.0078 1128.8619
386255.0217 1128.8540
386231.0269 1128.8461
386207.0233 1128.8382
386183.0110 1128.8303
386171.5533 1128.8265
386158.9834 1128.8224
386134.9411 1128.8144
386110.8900 1128.8064
386086.8302 1128.7984
386062.7615 1128.7904
386044.1821 1128.7842
386038.6812 1128.7823
386014.5826 1128.7742
385990.4751 1128.7661
385966.3588 1128.7580
385942.2337 1128.7499
385918.0998 1128.7418
385916.6579 1128.7413
385893.9454 1128.7336
385869.7814 1128.7255
385845.6085 1128.7173
385821.4268 1128.7090
385797.2363 1128.7008
385788.9806 1128.6980
385773.0287 1128.6926
385748.8080 1128.6843
385724.5785 1128.6760
385700.3400 1128.6677
385676.0928 1128.6594
385661.1505 1128.6542
385651.8318 1128.6510
385627.5543 1128.6426
385603.2679 1128.6342
385578.9726 1128.6258
385554.6684 1128.6174
385533.1677 1128.6100
385530.3539 1128.6090
385506.0194 1128.6005
385481.6760 1128.5920
385457.3237 1128.5835
385432.9625 1128.5750
385408.5923 1128.5665
385405.0318 1128.5652
385384.2025 1128.5579
385359.8020 1128.5493
385335.3926 1128.5407
385310.9741 1128.5321
385286.5468 1128.5235
385276.7431 1128.5200
385262.1030 1128.5149
385237.6452 1128.5062
385213.1784 1128.4975
385188.7027 1128.4888
385164.2180 1128.4800
385148.3018 1128.4744
385139.7199 1128.4713
385115.2047 1128.4625
385090.6805 1128.4537
385066.1473 1128.4449
385041.6051 1128.4361
385019.7078 1128.4282
385017.0525 1128.4273
384992.4797 1128.4184
384967.8979 1128.4095
384943.3071 1128.4006
384918.7073 1128.3917
384894.0985 1128.3827
384890.9611 1128.3816
384869.4696 1128.3738
384844.8301 1128.3648
384820.1815 1128.3558
384795.5239 1128.3467
384770.8573 1128.3377
384762.0616 1128.3345
384746.1735 1128.3286
384721.4761 1128.3196
384696.7696 1128.3105
384672.0541 1128.3013
384647.3295 1128.2922
384633.0097 1128.2869
384622.5905 1128.2831
384597.8352 1128.2739
384573.0707 1128.2647
384548.2971 1128.2554
384523.5144 1128.2462
384503.8053 1128.2389
384498.7201 1128.2370
384473.9065 1128.2277
384449.0839 1128.2184
384424.2521 1128.2091
384399.4112 1128.1997
384374.5612 1128.1904
384374.4485 1128.1903
384349.6894 1128.1810
384324.8085 1128.1716
384299.9183 1128.1622
384275.0191 1128.1527
384250.1107 1128.1433
384244.9390 1128.1413
384225.1831 1128.1338
384200.2436 1128.1243
384175.2950 1128.1148
384150.3373 1128.1053
384125.3703 1128.0957
384115.2773 1128.0919
384100.3866 1128.0861
384075.3886 1128.0765
384050.3814 1128.0669
384025.3649 1128.0573
384000.3393 1128.0476
383985.4633 1128.0419
383975.2993 1128.0380
383950.2425 1128.0283
383925.1765 1128.0185
383900.1013 1128.0088
383875.0169 1127.9991
383855.4972 1127.9915
383849.9204 1127.9893
383824.8047 1127.9795
383799.6798 1127.9697
383774.5456 1127.9598
383749.4022 1127.9500
383725.3789 1127.9406
383724.2490 1127.9401
383699.0743 1127.9302
383673.8903 1127.9203
383648.6971 1127.9103
383623.4946 1127.9004
383598.2828 1127.8904
383595.1082 1127.8892
383573.0505 1127.8804
383547.8073 1127.8704
383522.5548 1127.8604
383497.2931 1127.8503
383472.0220 1127.8402
383464.6855 1127.8373
383446.7325 1127.8301
383421.4299 1127.8200
383396.1181 1127.8099
383370.7969 1127.7997
383345.4664 1127.7895
383334.1108 1127.7850
383320.1195 1127.7793
383294.7574 1127.7691
383269.3860 1127.7588
383244.0053 1127.7486
383218.6152 1127.7383
383203.3842 1127.7321
383193.2106 1127.7280
383167.7890 1127.7177
383142.3579 1127.7073
383116.9175 1127.6970
383091.4677 1127.6866
383072.5057 1127.6788
383066.0052 1127.6762
383040.5237 1127.6657
383015.0328 1127.6553
382989.5325 1127.6448
382964.0228 1127.6343
382941.4753 1127.6251
382938.5023 1127.6238
382912.9608 1127.6133
382887.4099 1127.6027
382861.8497 1127.5922
382836.2800 1127.5816
382810.7008 1127.5710
382810.2930 1127.5708
382785.0995 1127.5603
382759.4885 1127.5497
382733.8681 1127.5390
382708.2382 1127.5283
382682.5988 1127.5176
382678.9588 1127.5161
382656.9389 1127.5069
382631.2676 1127.4961
382605.5869 1127.4853
382579.8967 1127.4745
382554.1970 1127.4637
382547.4728 1127.4609
382528.4782 1127.4528
382502.7465 1127.4420
382477.0053 1127.4311
382451.2546 1127.4202
382425.4944 1127.4093
382415.8352 1127.4052
382399.7165 1127.3983
382373.9242 1127.3873
382348.1224 1127.3763
382322.3111 1127.3653
382296.4902 1127.3543
382284.0458 1127.3490
382270.6530 1127.3433
382244.8000 1127.3322
382218.9374 1127.3211
382193.0653 1127.3100
382167.1836 1127.2988
382152.1047 1127.2923
382141.2868 1127.2877
382115.3729 1127.2765
382089.4494 1127.2653
382063.5163 1127.2541
382037.5736 1127.2428
382020.0121 1127.2352
382011.6171 1127.2316
381985.6421 1127.2203
381959.6575 1127.2089
381933.6633 1127.1976
381907.6595 1127.1863
381887.7677 1127.1776
381881.6430 1127.1749
381855.6068 1127.1635
381829.5610 1127.1521
381803.5055 1127.1406
381777.4404 1127.1292
381755.3717 1127.1195
381751.3636 1127.1177
381725.2660 1127.1062
381699.1588 1127.0947
381673.0418 1127.0831
381646.9153 1127.0716
381622.8241 1127.0609
381620.7780 1127.0600
381594.6189 1127.0484
381568.4500 1127.0367
381542.2715 1127.0251
381516.0833 1127.0134
381490.1249 1127.0018
381489.8853 1127.0017
381463.6645 1126.9900
381437.4339 1126.9783
381411.1937 1126.9665
381384.9437 1126.9547
381358.6840 1126.9429
381357.2740 1126.9423
381332.4019 1126.9311
381306.1095 1126.9192
381279.8073 1126.9074
381253.4953 1126.8955
381227.1736 1126.8836
381224.2714 1126.8823
381200.8304 1126.8716
381174.4758 1126.8597
381148.1115 1126.8477
381121.7375 1126.8357
381095.3536 1126.8237
381091.1172 1126.8218
381068.9488 1126.8116
381042.5320 1126.7996
381016.1055 1126.7875
380989.6691 1126.7754
380963.2229 1126.7632
380957.8113 1126.7608
380936.7563 1126.7511
380910.2771 1126.7389
380883.7881 1126.7267
380857.2893 1126.7145
380830.7806 1126.7022
380824.3537 1126.6993
380804.2520 1126.6900
380777.7102 1126.6777
380751.1586 1126.6654
380724.5971 1126.6530
380698.0258 1126.6407
380690.7444 1126.6373
380671.4348 1126.6283
380644.8303 1126.6159
380618.2159 1126.6035
380591.5916 1126.5910
380564.9575 1126.5786
380556.9833 1126.5748
380538.3040 1126.5661
380511.6365 1126.5536
380484.9592 1126.5410
380458.2719 1126.5285
380431.5747 1126.5159
380423.0704 1126.5119
380404.8583 1126.5033
380378.1278 1126.4907
380351.3873 1126.4780
380324.6369 1126.4654
380297.8764 1126.4527
380289.0057 1126.4485
380271.0970 1126.4400
380244.3032 1126.4272
380217.4994 1126.4145
380190.6856 1126.4017
380163.8618 1126.3889
380154.7891 1126.3846
380137.0191 1126.3761
380110.1617 1126.3632
380083.2944 1126.3503
380056.4171 1126.3374
380029.5297 1126.3245
380020.4205 1126.3202
380002.6234 1126.3116
379975.7024 1126.2986
379948.7714 1126.2856
379921.8304 1126.2726
379894.8793 1126.2596
379885.9000 1126.2553
379867.9090 1126.2465
379840.9242 1126.2335
379813.9294 1126.2204
379786.9244 1126.2072
379759.9093 1126.1941
379751.2273 1126.1899
379732.8750 1126.1809
379705.8261 1126.1677
379678.7672 1126.1545
379651.6982 1126.1413
379624.6190 1126.1280
379616.4024 1126.1240
379597.5202 1126.1147
379570.4071 1126.1014
379543.2840 1126.0881
379516.1506 1126.0747
379489.0071 1126.0614
379481.4253 1126.0576
379461.8436 1126.0480
379434.6662 1126.0345
379407.4786 1126.0211
379380.2807 1126.0076
379353.0727 1125.9941
379346.2959 1125.9908
379325.8443 1125.9806
379298.6022 1125.9671
379271.3499 1125.9535
379244.0875 1125.9399
379216.8147 1125.9263
379211.0140 1125.9234
379189.5210 1125.9127
379162.2142 1125.8990
379134.8970 1125.8853
379107.5697 1125.8716
379080.2321 1125.8579
379075.5795 1125.8556
379052.8728 1125.8442
379025.5010 1125.8304
378998.1188 1125.8166
378970.7264 1125.8028
378943.3237 1125.7889
378939.9924 1125.7873
378915.8986 1125.7751
378888.4615 1125.7612
378861.0141 1125.7472
378833.5564 1125.7333
378806.0884 1125.7194
378804.2525 1125.7184
378778.5972 1125.7054
378751.0947 1125.6913
378723.5819 1125.6773
378696.0587 1125.6633
378668.5252 1125.6492
378668.3597 1125.6491
378640.9676 1125.6351
378613.3995 1125.6209
378585.8210 1125.6068
378558.2322 1125.5926
378532.3138 1125.5793
378530.6321 1125.5784
378503.0086 1125.5642
378475.3747 1125.5499
378447.7303 1125.5356
378420.0756 1125.5214
378396.1147 1125.5090
378392.4086 1125.5070
378364.7191 1125.4927
378337.0191 1125.4783
378309.3087 1125.4639
378281.5879 1125.4495
378259.7622 1125.4381
378253.8536 1125.4351
378226.0979 1125.4206
378198.3317 1125.4061
378170.5551 1125.3916
378142.7679 1125.3770
378123.2563 1125.3668
378114.9661 1125.3625
378087.1440 1125.3479
378059.3113 1125.3333
378031.4681 1125.3186
378003.6144 1125.3040
377986.5968 1125.2950
377975.7448 1125.2893
377947.8560 1125.2746
377919.9567 1125.2598
377892.0468 1125.2451
377864.1263 1125.2303
377849.7834 1125.2227
377836.1885 1125.2155
377808.2329 1125.2006
377780.2667 1125.1858
377752.2898 1125.1709
377724.3024 1125.1560
377712.8160 1125.1499
377696.2961 1125.1411
377668.2734 1125.1261
377640.2400 1125.1111
377612.1960 1125.0961
377584.1414 1125.0811
377575.6945 1125.0766
377556.0663 1125.0660
377527.9763 1125.0509
377499.8756 1125.0358
377471.7642 1125.0207
377443.6421 1125.0056
377438.4187 1125.0027
377415.4979 1124.9904
377387.3403 1124.9751
377359.1721 1124.9599
377330.9931 1124.9447
377302.8033 1124.9294
377300.9882 1124.9284
377274.5897 1124.9141
377246.3644 1124.8987
377218.1283 1124.8834
377189.8814 1124.8680
377163.4030 1124.8536
377161.6229 1124.8526
377133.3404 1124.8372
377105.0471 1124.8217
377076.7429 1124.8062
377048.4280 1124.7907
377025.6626 1124.7782
377020.0995 1124.7752
376991.7487 1124.7596
376963.3871 1124.7440
376935.0147 1124.7284
376906.6315 1124.7128
376887.7671 1124.7024
376878.2326 1124.6971
376849.8134 1124.6814
376821.3834 1124.6657
376792.9424 1124.6500
376764.4906 1124.6342
376749.7162 1124.6260
376736.0210 1124.6184
376707.5331 1124.6026
376679.0344 1124.5867
376650.5246 1124.5709
376622.0040 1124.5550
376611.5096 1124.5491
376593.4634 1124.5391
376564.9066 1124.5231
376536.3389 1124.5071
376507.7601 1124.4911
376479.1704 1124.4751
376473.1471 1124.4718
376450.5584 1124.4591
376421.9325 1124.4430
376393.2955 1124.4269
376364.6475 1124.4108
376335.9885 1124.3946
376334.6284 1124.3939
376307.3048 1124.3784
376278.6094 1124.3622
376249.9029 1124.3460
376221.1854 1124.3297
376195.9531 1124.3155
376192.4550 1124.3135
376163.7010 1124.2971
376134.9359 1124.2808
376106.1597 1124.2644
376077.3724 1124.2481
376057.1211 1124.2365
376048.5697 1124.2317
376019.7458 1124.2152
375990.9108 1124.1987
375962.0646 1124.1822
375933.2072 1124.1657
375918.1321 1124.1571
375904.3318 1124.1492
375875.4377 1124.1326
375846.5325 1124.1160
375817.6160 1124.0994
375788.6884 1124.0827
375778.9858 1124.0771
375759.7399 1124.0660
375730.7754 1124.0493
375701.7996 1124.0326
375672.8127 1124.0158
375643.8144 1123.9990
375639.6819 1123.9967
375614.7925 1123.9822
375585.7573 1123.9654
375556.7108 1123.9485
375527.6530 1123.9316
375500.2201 1123.9157
375498.5831 1123.9147
375469.4883 1123.8977
375440.3821 1123.8807
375411.2646 1123.8637
375382.1357 1123.8467
375360.6000 1123.8341
375352.9917 1123.8297
375323.8256 1123.8126
375294.6482 1123.7955
375265.4594 1123.7783
375236.2592 1123.7612
375220.8213 1123.7521
375207.0407 1123.7440
375177.8032 1123.7267
375148.5542 1123.7095
375119.2939 1123.6922
375090.0220 1123.6749
375080.8838 1123.6695
375060.7287 1123.6576
375031.4195 1123.6402
375002.0987 1123.6228
374972.7665 1123.6054
374943.4227 1123.5880
374940.7873 1123.5864
374914.0542 1123.5705
374884.6729 1123.5530
374855.2801 1123.5355
374825.8757 1123.5179
374800.5310 1123.5028
374796.4577 1123.5004
374767.0157 1123.4827
374737.5620 1123.4651
374708.0968 1123.4474
374678.6200 1123.4297
374660.1149 1123.4186
374649.1262 1123.4120
374619.6116 1123.3943
374590.0854 1123.3765
374560.5475 1123.3587
374530.9980 1123.3409
374519.5387 1123.3339
374501.4279 1123.3230
374471.8404 1123.3051
374442.2413 1123.2872
374412.6305 1123.2692
374383.0081 1123.2513
374378.8022 1123.2487
374353.3613 1123.2333
374323.7007 1123.2152
374294.0284 1123.1972
374264.3444 1123.1791
374237.9047 1123.1630
374234.6471 1123.1610
374204.9249 1123.1428
374175.1909 1123.1246
374145.4451 1123.1065
374115.6876 1123.0882
374096.8460 1123.0767
374085.9129 1123.0700
374056.1170 1123.0517
374026.3094 1123.0334
373996.4899 1123.0150
373966.6586 1122.9967
373955.6259 1122.9899
373936.8061 1122.9783
373906.9363 1122.9598
373877.0547 1122.9414
373847.1612 1122.9229
373817.2558 1122.9044
373814.2442 1122.9025
373787.3252 1122.8858
373757.3812 1122.8672
373727.4253 1122.8486
373697.4574 1122.8300
373672.7002 1122.8146
373667.4751 1122.8113
373637.4685 1122.7926
373607.4500 1122.7739
373577.4195 1122.7552
373547.3771 1122.7364
373530.9938 1122.7262
373517.3159 1122.7176
373487.2346 1122.6987
373457.1413 1122.6799
373427.0360 1122.6610
373396.9186 1122.6421
373389.1248 1122.6372
373366.7782 1122.6231
373336.6218 1122.6041
373306.4535 1122.5851
373276.2730 1122.5661
373247.0929 1122.5476
373246.0800 1122.5470
373215.8604 1122.5279
373185.6287 1122.5087
373155.3850 1122.4896
373125.1291 1122.4704
373104.8974 1122.4576
373094.8561 1122.4512
373064.5610 1122.4319
373034.2537 1122.4126
373003.9343 1122.3933
372973.6027 1122.3740
372962.5385 1122.3670
372943.2494 1122.3546
372912.8784 1122.3352
372882.4952 1122.3158
372852.0998 1122.2963
372821.6922 1122.2769
372820.0158 1122.2758
372791.2582 1122.2573
372760.8111 1122.2378
372730.3517 1122.2182
372699.8801 1122.1986
372677.3288 1122.1841
372669.3923 1122.1789
372638.8811 1122.1593
372608.3575 1122.1396
372577.8217 1122.1198
372547.2735 1122.1001
372534.4774 1122.0918
372516.7043 1122.0803
372486.1164 1122.0604
372455.5161 1122.0406
372424.9035 1122.0207
372394.2786 1122.0008
372391.4615 1121.9990
372363.6275 1121.9809
372332.9627 1121.9609
372302.2854 1121.9409
372271.5958 1121.9208
372248.2805 1121.9056
372240.8901 1121.9008
372210.1605 1121.8807
372179.4184 1121.8605
372148.6639 1121.8404
372117.8969 1121.8202
372104.9345 1121.8117
372087.1087 1121.8000
372056.3016 1121.7797
372025.4820 1121.7594
371994.6499 1121.7391
371963.8053 1121.7188
371961.4232 1121.7172
371932.9342 1121.6984
371902.0494 1121.6780
371871.1520 1121.6575
371840.2421 1121.6371
371817.7461 1121.6222
371809.3154 1121.6166
371778.3652 1121.5960
371747.4023 1121.5754
371716.4269 1121.5549
371685.4388 1121.5342
371673.9032 1121.5266
371654.4286 1121.5136
371623.4001 1121.4929
371592.3589 1121.4722
371561.3051 1121.4514
371530.2387 1121.4306
371529.8946 1121.4304
371499.1445 1121.4098
371468.0375 1121.3889
371436.9177 1121.3681
371405.7853 1121.3472
371385.7195 1121.3337
371374.6348 1121.3262
371343.4617 1121.3052
371312.2758 1121.2842
371281.0773 1121.2632
371249.8660 1121.2421
371241.3783 1121.2364
371218.6307 1121.2210
371187.3786 1121.1999
371156.1137 1121.1787
371124.8360 1121.1575
371096.8705 1121.1386
371093.5439 1121.1363
371062.2253 1121.1150
371030.8939 1121.0937
370999.5496 1121.0724
370968.1926 1121.0511
370952.1961 1121.0402
370936.8152 1121.0297
370905.4170 1121.0083
370874.0061 1120.9868
370842.5822 1120.9653
370811.1456 1120.9438
370807.3550 1120.9412
370779.6824 1120.9222
370748.2045 1120.9007
370716.7137 1120.8790
370685.2100 1120.8574
370662.3469 1120.8417
370653.6892 1120.8357
370622.1442 1120.8140
370590.5863 1120.7922
370559.0155 1120.7705
370527.4317 1120.7487
370517.1719 1120.7416
370495.8244 1120.7268
370464.1992 1120.7049
370432.5610 1120.6830
370400.9099 1120.6611
370371.8299 1120.6409
370369.2445 1120.6391
370337.5518 1120.6171
370305.8461 1120.5951
370274.1274 1120.5730
370242.3956 1120.5509
370226.3207 1120.5397
370210.6432 1120.5288
370178.8698 1120.5066
370147.0834 1120.4844
370115.2839 1120.4621
370083.4714 1120.4399
370080.6445 1120.4379
370051.6316 1120.4176
370019.7773 1120.3952
369987.9099 1120.3729
369956.0295 1120.3505
369934.8011 1120.3356
369924.1307 1120.3280
369892.2083 1120.3056
369860.2729 1120.2831
369828.3243 1120.2605
369796.3627 1120.2380
369788.7906 1120.2326
369764.3759 1120.2154
369732.3722 1120.1927
369700.3554 1120.1700
369668.3254 1120.1474
369642.6131 1120.1291
369636.2792 1120.1246
369604.2072 1120.1018
369572.1220 1120.0790
369540.0236 1120.0562
369507.9120 1120.0334
369496.2685 1120.0251
369475.7771 1120.0104
369443.6234 1119.9875
369411.4564 1119.9645
369379.2762 1119.9415
369349.7572 1119.9204
369347.0815 1119.9185
369314.8591 1119.8954
369282.6234 1119.8723
369250.3745 1119.8492
369218.1123 1119.8260
369203.0790 1119.8152
369185.8284 1119.8028
369153.5239 1119.7796
369121.2061 1119.7563
369088.8750 1119.7330
369056.5307 1119.7097
369056.2345 1119.7094
369024.1573 1119.6863
368991.7705 1119.6629
368959.3704 1119.6394
368926.9570 1119.6159
368909.2234 1119.6031
368894.5231 1119.5924
368862.0672 1119.5689
368829.5980 1119.5453
368797.1154 1119.5217
368764.6195 1119.4981
368762.0464 1119.4962
368732.0956 1119.4744
368699.5571 1119.4506
368667.0052 1119.4269
368634.4401 1119.4031
368614.7035 1119.3887
368601.8552 1119.3793
368569.2473 1119.3554
368536.6261 1119.3316
368503.9915 1119.3076
368471.3435 1119.2837
368467.1953 1119.2807
368438.6682 1119.2597
368405.9775 1119.2357
368373.2734 1119.2116
368340.5559 1119.1875
368319.5219 1119.1720
368307.8193 1119.1634
368275.0590 1119.1392
368242.2853 1119.1150
368209.4982 1119.0908
368176.6977 1119.0666
368171.6839 1119.0629
368143.8701 1119.0423
368111.0268 1119.0179
368078.1700 1118.9936
368045.2997 1118.9692
368023.6816 1118.9531
368012.4106 1118.9447
367979.4974 1118.9203
367946.5709 1118.8957
367913.6309 1118.8712
367880.6774 1118.8467
367875.5158 1118.8428
367847.6970 1118.8220
367814.7006 1118.7974
367781.6907 1118.7727
367748.6674 1118.7480
367727.1868 1118.7319
367715.6251 1118.7233
367682.5587 1118.6985
367649.4790 1118.6737
367616.3858 1118.6488
367583.2791 1118.6239
367578.6953 1118.6205
367550.1451 1118.5990
367516.9954 1118.5740
367483.8322 1118.5491
367450.6556 1118.5240
367430.0419 1118.5085
367417.4594 1118.4990
367384.2397 1118.4739
367351.0066 1118.4488
367317.7600 1118.4236
367284.4999 1118.3984
367281.2275 1118.3959
367251.2118 1118.3732
367217.9086 1118.3479
367184.5920 1118.3226
367151.2619 1118.2973
367132.2526 1118.2828
367117.9114 1118.2719
367084.5381 1118.2465
367051.1515 1118.2210
367017.7514 1118.1956
366984.3378 1118.1701
366983.1184 1118.1692
366950.8951 1118.1445
366917.4384 1118.1189
366883.9682 1118.0933
366850.4846 1118.0677
366833.8253 1118.0549
366816.9794 1118.0420
366783.4526 1118.0163
366749.9124 1117.9905
366716.3588 1117.9648
366684.3747 1117.9402
366682.7910 1117.9389
366649.1942 1117.9131
366615.5839 1117.8872
366581.9603 1117.8613
366548.3233 1117.8353
366534.7672 1117.8248
366514.6631 1117.8093
366480.9828 1117.7833
366447.2892 1117.7572
366413.5822 1117.7311
366385.0043 1117.7090
366379.8593 1117.7050
366346.1091 1117.6788
366312.3456 1117.6526
366278.5686 1117.6264
366244.7783 1117.6001
366235.0867 1117.5926
366210.9630 1117.5738
366177.1295 1117.5474
366143.2827 1117.5211
366109.4226 1117.4947
366085.0159 1117.4756
366075.5445 1117.4682
366041.6412 1117.4417
366007.7246 1117.4152
365973.7947 1117.3887
365939.8515 1117.3621
365934.7930 1117.3581
365905.8809 1117.3355
365871.8945 1117.3088
365837.8949 1117.2821
365803.8820 1117.2554
365784.4193 1117.2401
365769.8488 1117.2287
365735.7928 1117.2019
365701.7236 1117.1750
365667.6412 1117.1482
365633.8964 1117.1216
365633.5453 1117.1213
365599.4198 1117.0944
365565.2811 1117.0674
365531.1292 1117.0404
365496.9641 1117.0134
365483.2255 1117.0025
365462.7758 1116.9863
365428.5677 1116.9592
365394.3465 1116.9321
365360.1121 1116.9049
365332.4083 1116.8829
365325.8614 1116.8777
365291.5840 1116.8505
365257.2935 1116.8232
365222.9900 1116.7959
365188.6733 1116.7686
365181.4462 1116.7628
365154.3304 1116.7412
365119.9709 1116.7138
365085.5983 1116.6864
365051.2127 1116.6589
365030.3411 1116.6422
365016.8074 1116.6314
364982.3790 1116.6038
364947.9376 1116.5763
364913.4832 1116.5487
364879.0946 1116.5211
364879.0157 1116.5210
364844.5186 1116.4933
364810.0084 1116.4656
364775.4854 1116.4379
364740.9494 1116.4101
364727.7081 1116.3995
364706.3901 1116.3823
364671.8115 1116.3545
364637.2199 1116.3266
364602.6155 1116.2987
364576.1839 1116.2774
364567.9943 1116.2707
364533.3473 1116.2427
364498.6875 1116.2147
364464.0149 1116.1867
364429.3295 1116.1586
364424.5235 1116.1547
364394.6167 1116.1305
364359.8889 1116.1024
364325.1482 1116.0742
364290.3949 1116.0460
364272.7287 1116.0316
364255.6204 1116.0177
364220.8247 1115.9894
364186.0162 1115.9611
364151.1951 1115.9328
364120.8016 1115.9081
364116.3591 1115.9044
364081.4956 1115.8760
364046.6196 1115.8476
364011.7309 1115.8191
363976.8296 1115.7906
363968.7439 1115.7840
363941.9026 1115.7621
363906.9591 1115.7335
363872.0031 1115.7049
363837.0345 1115.6763
363816.5575 1115.6595
363802.0463 1115.6476
363767.0356 1115.6189
363732.0125 1115.5901
363696.9768 1115.5614
363664.2445 1115.5345
363661.9276 1115.5326
363626.8500 1115.5037
363591.7599 1115.4749
363556.6574 1115.4460
363521.5425 1115.4171
363511.8065 1115.4090
363486.4029 1115.3881
363451.2461 1115.3591
363416.0771 1115.3301
363380.8956 1115.3010
363359.2458 1115.2831
363345.6953 1115.2719
363310.4721 1115.2428
363275.2366 1115.2136
363239.9888 1115.1845
363206.5642 1115.1568
363204.7279 1115.1553
363169.4385 1115.1260
363134.1369 1115.0967
363098.8231 1115.0674
363063.4970 1115.0381
363053.7635 1115.0300
363028.1464 1115.0087
362992.7788 1114.9793
362957.3991 1114.9498
362922.0073 1114.9204
362900.8458 1114.9027
362886.5965 1114.8909
362851.1632 1114.8613
362815.7179 1114.8318
362780.2605 1114.8022
362747.8131 1114.7751
362744.7897 1114.7726
362709.2910 1114.7429
362673.7803 1114.7132
362638.2576 1114.6835
362602.7229 1114.6537
362594.6671 1114.6470
362567.1629 1114.6239
362531.5871 1114.5941
362495.9993 1114.5643
362460.3996 1114.5344
362441.4100 1114.5185
362424.7800 1114.5045
362389.1392 1114.4746
362353.4866 1114.4446
362317.8221 1114.4146
362288.0436 1114.3896
362282.1430 1114.3846
362246.4375 1114.3545
362210.7203 1114.3244
362174.9913 1114.2943
362139.2505 1114.2642
362134.5698 1114.2602
362103.4829 1114.2340
362067.7013 1114.2037
362031.9079 1114.1735
361996.1029 1114.1432
361980.9905 1114.1305
361960.2762 1114.1129
361924.4304 1114.0826
361888.5730 1114.0522
361852.7040 1114.0218
361827.3076 1114.0003
361816.8182 1113.9914
361780.9085 1113.9610
361744.9872 1113.9305
361709.0544 1113.9000
361673.5230 1113.8698
361673.1099 1113.8694
361637.1365 1113.8389
361601.1516 1113.8082
361565.1552 1113.7776
361529.1473 1113.7470
361519.6384 1113.7389
361493.1151 1113.7163
361457.0668 1113.6855
361421.0071 1113.6548
361384.9360 1113.6240
361365.6558 1113.6076
361348.8452 1113.5932
361312.7338 1113.5624
361276.6109 1113.5315
361240.4767 1113.5006
361211.5770 1113.4759
361204.3277 1113.4697
361168.1532 1113.4387
361131.9675 1113.4077
361095.7705 1113.3767
361059.5622 1113.3457
361057.4038 1113.3438
361023.3260 1113.3146
360987.0776 1113.2835
360950.8180 1113.2523
360914.5471 1113.2212
360903.1377 1113.2114
360878.2530 1113.1900
360841.9421 1113.1588
360805.6200 1113.1275
360769.2868 1113.0963
360748.7808 1113.0786
360732.9348 1113.0650
360696.5616 1113.0336
360660.1774 1113.0023
360623.7820 1112.9709
360594.3347 1112.9455
360587.3722 1112.9395
360550.9370 1112.9080
360514.4908 1112.8765
360478.0335 1112.8450
360441.5652 1112.8135
360439.8011 1112.8120
360405.0690 1112.7819
360368.5610 1112.7503
360332.0420 1112.7187
360295.5120 1112.6871
360285.1816 1112.6781
360258.9583 1112.6554
360222.3887 1112.6237
360185.8081 1112.5920
360149.2167 1112.5602
360130.4780 1112.5440
360112.6057 1112.5284
360075.9746 1112.4966
360039.3327 1112.4648
360002.6800 1112.4329
359975.6920 1112.4094
359966.0117 1112.4010
359929.3194 1112.3691
359892.6164 1112.3371
359855.9026 1112.3051
359820.8251 1112.2746
359819.1772 1112.2731
359782.4238 1112.2411
359745.6598 1112.2090
359708.8850 1112.1769
359672.0996 1112.1448
359665.8787 1112.1394
359635.2885 1112.1127
359598.4636 1112.0805
359561.6281 1112.0483
359524.7820 1112.0161
359510.8547 1112.0039
359487.9139 1111.9838
359451.0285 1111.9515
359414.1324 1111.9192
359377.2257 1111.8869
359355.7544 1111.8680
359340.3008 1111.8545
359303.3549 1111.8221
359266.3984 1111.7897
359229.4314 1111.7572
359200.5795 1111.7319
359192.4498 1111.7248
359155.4436 1111.6922
359118.4268 1111.6597
359081.3996 1111.6272
359045.3314 1111.5955
359044.3613 1111.5946
359007.2950 1111.5620
358970.2181 1111.5293
358933.1308 1111.4967
358896.0331 1111.4640
358890.0114 1111.4587
358858.9097 1111.4313
358821.7729 1111.3985
358784.6257 1111.3657
358747.4681 1111.3330
358734.6210 1111.3216
358710.2882 1111.3001
358673.0916 1111.2673
358635.8846 1111.2344
358598.6673 1111.2015
358579.1617 1111.1843
358561.4309 1111.1686
358524.1747 1111.1356
358486.9081 1111.1026
358449.6312 1111.0696
358423.6348 1111.0466
358412.3384 1111.0366
358375.0226 1111.0035
358337.6966 1110.9704
358300.3602 1110.9373
358268.0415 1110.9087
358263.0111 1110.9042
358225.6359 1110.8710
358188.2504 1110.8378
358150.8547 1110.8046
358113.4488 1110.7714
358112.3831 1110.7704
358076.0148 1110.7381
358038.5700 1110.7048
358001.1151 1110.6714
357963.6500 1110.6381
357956.6607 1110.6319
357926.1597 1110.6047
357888.6557 1110.5713
357851.1417 1110.5379
357813.6174 1110.5045
357800.8755 1110.4931
357776.0708 1110.4710
357738.5078 1110.4374
357700.9347 1110.4039
357663.3514 1110.3704
357645.0288 1110.3540
357625.7485 1110.3368
357588.1265 1110.3032
357550.4944 1110.2695
357512.8522 1110.2359
357489.1214 1110.2147
357475.1930 1110.2022
357437.5121 1110.1685
357399.8210 1110.1347
357362.1199 1110.1010
357333.1545 1110.0750
357324.4044 1110.0672
357286.6646 1110.0334
357248.9147 1109.9995
357211.1548 1109.9657
357177.1289 1109.9351
357173.3829 1109.9318
357135.5842 1109.8978
357097.7755 1109.8639
357059.9567 1109.8299
357022.1279 1109.7960
357021.0454 1109.7950
356984.2710 1109.7619
356946.4035 1109.7279
356908.5259 1109.6938
356870.6383 1109.6597
356864.9049 1109.6546
356832.7249 1109.6256
356794.7986 1109.5914
356756.8622 1109.5572
356718.9159 1109.5231
356708.7080 1109.5139
356680.9458 1109.4888
356642.9607 1109.4546
356604.9656 1109.4203
356566.9604 1109.3860
356552.4555 1109.3729
356528.9337 1109.3517
356490.8897 1109.3173
356452.8358 1109.2829
356414.7718 1109.2485
356396.1479 1109.2317
356376.6882 1109.2141
356338.5854 1109.1796
356300.4726 1109.1452
356262.3498 1109.1107
356239.7857 1109.0902
356224.2092 1109.0761
356186.0475 1109.0416
356147.8757 1109.0070
356109.6939 1108.9724
356083.3692 1108.9485
356071.4962 1108.9377
356033.2755 1108.9031
355995.0447 1108.8684
355956.8039 1108.8337
355926.8988 1108.8065
355918.5489 1108.7990
355880.2691 1108.7642
355841.9792 1108.7294
355803.6792 1108.6946
355770.3747 1108.6643
355765.3667 1108.6597
355727.0276 1108.6249
355688.6784 1108.5900
355650.3192 1108.5551
355613.7969 1108.5218
355611.9489 1108.5201
355573.5505 1108.4851
355535.1419 1108.4501
355496.7232 1108.4151
355458.2943 1108.3801
355457.1655 1108.3791
355419.8369 1108.3450
355381.3687 1108.3099
355342.8904 1108.2748
355304.4019 1108.2396
355300.4803 1108.2361
355265.8861 1108.2044
355227.3581 1108.1692
355188.8200 1108.1340
355150.2716 1108.0988
355143.7412 1108.0928
355111.6971 1108.0635
355073.1091 1108.0281
355034.5109 1107.9928
354995.9023 1107.9575
354986.9478 1107.9493
354957.2688 1107.9221
354918.6205 1107.8866
354879.9620 1107.8512
354841.2930 1107.8158
354830.0997 1107.8055
354802.6001 1107.7803
354763.8913 1107.7447
354725.1721 1107.7092
354686.4424 1107.6736
354673.1963 1107.6614
354647.6897 1107.6380
354608.9200 1107.6024
354570.1398 1107.5667
354531.3491 1107.5310
354516.2368 1107.5171
354492.5362 1107.4953
354453.7052 1107.4596
354414.8637 1107.4238
354376.0116 1107.3880
354359.2206 1107.3726
354337.1379 1107.3522
354298.2453 1107.3163
354259.3421 1107.2805
354220.4282 1107.2446
354202.1466 1107.2277
354181.4933 1107.2086
354142.5387 1107.1727
354103.5733 1107.1367
354064.5972 1107.1007
354045.0137 1107.0826
354025.6006 1107.0646
353986.5835 1107.0286
353947.5556 1106.9925
353908.5168 1106.9563
353887.8209 1106.9372
353869.4579 1106.9202
353830.3779 1106.8840
353791.2869 1106.8478
353752.1849 1106.8115
353730.5667 1106.7915
353713.0632 1106.7753
353673.9197 1106.7390
353634.7652 1106.7026
353595.5995 1106.6663
353573.2500 1106.6455
353556.4144 1106.6299
353517.2070 1106.5935
353477.9884 1106.5570
353438.7586 1106.5206
353415.8693 1106.4993
353399.5094 1106.4841
353360.2375 1106.4475
353320.9543 1106.4109
353281.6598 1106.3744
353258.4232 1106.3527
353242.3459 1106.3377
353203.0091 1106.3011
353163.6608 1106.2644
353124.3010 1106.2277
353100.9100 1106.2059
353084.9217 1106.1909
353045.5193 1106.1541
353006.1053 1106.1173
352966.6797 1106.0805
352943.3283 1106.0587
352927.2344 1106.0436
352887.7659 1106.0067
352848.2856 1105.9698
352808.7936 1105.9328
352785.6764 1105.9112
352769.2817 1105.8959
352729.7464 1105.8588
352690.1993 1105.8218
352650.6403 1105.7847
352627.9527 1105.7634
352611.0610 1105.7476
352571.4584 1105.7104
352531.8439 1105.6732
352492.2173 1105.6360
352470.1556 1105.6153
352452.5699 1105.5988
352412.8995 1105.5615
352373.2169 1105.5242
352333.5221 1105.4868
352312.2833 1105.4668
352293.8059 1105.4494
352254.0670 1105.4120
352214.3158 1105.3746
352174.5522 1105.3371
352154.3342 1105.3181
352134.7666 1105.2996
352094.9585 1105.2620
352055.1380 1105.2245
352015.3051 1105.1869
351996.3066 1105.1689
351975.4492 1105.1492
351935.5715 1105.1115
351895.6811 1105.0738
351855.7781 1105.0361
351838.1988 1105.0195
351815.8514 1104.9983
351775.9033 1104.9605
351735.9425 1104.9226
351695.9689 1104.8848
351680.0092 1104.8696
351655.9706 1104.8468
351615.9515 1104.8089
351575.9196 1104.7709
351535.8748 1104.7329
351521.7360 1104.7195
351495.8042 1104.6948
351455.7135 1104.6567
351415.6099 1104.6186
351375.4933 1104.5805
351363.3777 1104.5689
351335.3496 1104.5422
351295.1868 1104.5040
351255.0109 1104.4657
351214.8218 1104.4274
351204.9326 1104.4180
351174.6044 1104.3891
351134.3689 1104.3507
351094.1201 1104.3123
351053.8579 1104.2739
351046.3993 1104.2667
351013.5661 1104.2354
350973.2573 1104.1968
350932.9349 1104.1583
350892.5992 1104.1197
350887.7760 1104.1151
350852.2322 1104.0811
350811.8494 1104.0424
350771.4530 1104.0037
350731.0430 1103.9650
350729.0613 1103.9631
350690.6003 1103.9261
350650.1429 1103.8873
350609.6719 1103.8485
350570.2538 1103.8106
350569.1866 1103.8096
350528.6679 1103.7706
350488.1355 1103.7317
350447.5892 1103.6927
350411.3519 1103.6578
350407.0269 1103.6536
350366.4327 1103.6145
350325.8246 1103.5754
350285.2025 1103.5362
350252.3544 1103.5046
350244.5626 1103.4971
350203.8923 1103.4578
350163.2080 1103.4185
350122.5096 1103.3792
350093.2598 1103.3510
350081.7913 1103.3399
350041.0444 1103.3005
350000.2834 1103.2610
349959.5081 1103.2216
349934.0669 1103.1969
349918.7109 1103.1821
349877.8869 1103.1425
349837.0485 1103.1029
349796.1959 1103.0633
349774.7745 1103.0425
349755.3192 1103.0236
349714.4174 1102.9839
349673.5013 1102.9441
349632.5707 1102.9043
349615.3813 1102.8876
349591.6138 1102.8645
349550.6339 1102.8246
349509.6395 1102.7847
349468.6305 1102.7448
349455.8862 1102.7324
349427.5928 1102.7048
349386.5342 1102.6647
349345.4610 1102.6247
349304.3731 1102.5846
349296.2882 1102.5767
349263.2541 1102.5444
349222.1164 1102.5042
349180.9639 1102.4639
349139.7966 1102.4237
349136.5862 1102.4205
349098.5957 1102.3833
349057.3784 1102.3430
349016.1461 1102.3026
348976.7792 1102.2640
348974.8981 1102.2621
348933.6156 1102.2216
348892.3182 1102.1811
348851.0058 1102.1405
348816.8662 1102.1070
348809.6749 1102.0999
348768.3120 1102.0593
348726.9340 1102.0185
348685.5410 1101.9778
348656.8463 1101.9496
348644.1267 1101.9370
348602.6829 1101.8962
348561.2241 1101.8553
348519.7500 1101.8144
348496.7189 1101.7917
348478.2517 1101.7735
348436.7267 1101.7325
348395.1864 1101.6914
348353.6310 1101.6504
348336.4829 1101.6334
348312.0481 1101.6092
348270.4414 1101.5680
348228.8195 1101.5268
348187.1821 1101.4856
348176.1377 1101.4746
348145.5143 1101.4443
348103.8255 1101.4029
348062.1214 1101.3615
348020.4018 1101.3201
348015.6826 1101.3154
347978.6484 1101.2786
347936.8772 1101.2371
347895.0905 1101.1956
347855.1166 1101.1558
347853.2873 1101.1540
347811.4488 1101.1123
347769.5948 1101.0706
347727.7251 1101.0289
347694.4392 1100.9957
347685.8356 1100.9871
347643.9139 1100.9453
347601.9766 1100.9034
347560.0236 1100.8615
347533.6497 1100.8351
347518.0472 1100.8195
347476.0420 1100.7775
347434.0210 1100.7354
347391.9843 1100.6934
347372.7473 1100.6741
347349.9205 1100.6512
347307.8313 1100.6090
347265.7264 1100.5668
347223.6056 1100.5245
347211.7315 1100.5126
347181.4539 1100.4822
347139.2804 1100.4398
347097.0911 1100.3974
347054.8858 1100.3550
347050.6015 1100.3507
347012.6457 1100.3125
346970.3876 1100.2699
346928.1134 1100.2273
346889.3568 1100.1883
346885.8215 1100.1847
346843.4944 1100.1420
346801.1512 1100.0992
346758.7919 1100.0565
346727.9966 1100.0254
346716.4108 1100.0137
346673.9983 1099.9708
346631.5697 1099.9278
346589.1249 1099.8849
346566.5205 1099.8620
346546.6541 1099.8419
346504.1559 1099.7988
346461.6414 1099.7557
346419.1107 1099.7126
346404.9277 1099.6982
346376.5497 1099.6694
346333.9654 1099.6261
346291.3648 1099.5828
346248.7479 1099.5395
346243.2178 1099.5339
346206.0962 1099.4961
346163.4254 1099.4526
346120.7383 1099.4092
346081.3900 1099.3691
346078.0330 1099.3657
346035.2919 1099.3221
345992.5343 1099.2784
345949.7603 1099.2348
345919.4439 1099.2038
345906.9635 1099.1911
345864.1353 1099.1473
345821.2906 1099.1035
345778.4292 1099.0596
345757.3789 1099.0381
345735.5405 1099.0157
345692.6249 1098.9717
345649.6926 1098.9277
345606.7436 1098.8837
345595.1945 1098.8718
345563.7625 1098.8396
345520.7590 1098.7954
345477.7388 1098.7512
345434.7019 1098.7070
345432.8903 1098.7051
345391.6279 1098.6627
345348.5363 1098.6183
345305.4278 1098.5739
345270.4657 1098.5379
345262.2986 1098.5295
345219.1353 1098.4850
345175.9551 1098.4404
345132.7582 1098.3958
345107.9204 1098.3702
345089.5352 1098.3512
345046.2832 1098.3065
345003.0143 1098.2618
344959.7284 1098.2170
344945.2539 1098.2020
344916.4114 1098.1721
344873.0703 1098.1272
344829.7122 1098.0823
344786.3371 1098.0373
344782.4660 1098.0333
344742.9256 1097.9923
344699.4951 1097.9472
344656.0476 1097.9021
344619.5562 1097.8641
344612.5796 1097.8569
344569.0765 1097.8116
344525.5564 1097.7663
344482.0191 1097.7210
344456.5244 1097.6945
344438.4559 1097.6756
344394.8630 1097.6302
344351.2529 1097.5847
344307.6257 1097.5392
344293.3704 1097.5243
344263.9668 1097.4936
344220.2838 1097.4479
344176.5835 1097.4022
344132.8660 1097.3565
344130.0942 1097.3536
344089.1112 1097.3107
344045.3378 1097.2649
344001.5471 1097.2190
343966.6955 1097.1824
343957.7348 1097.1730
343913.8880 1097.1270
343870.0240 1097.0810
343826.1427 1097.0349
343803.1744 1097.0108
343782.2338 1096.9887
343738.2963 1096.9425
343694.3414 1096.8963
343650.3693 1096.8500
343639.5312 1096.8386
343606.3635 1096.8036
343562.3351 1096.7572
343518.2894 1096.7108
343475.7659 1096.6659
343474.2255 1096.6643
343430.1234 1096.6177
343386.0039 1096.5711
343341.8670 1096.5244
343311.8788 1096.4927
343297.7059 1096.4777
343253.5126 1096.4310
343209.3019 1096.3841
343165.0739 1096.3373
343147.8705 1096.3191
343120.8152 1096.2904
343076.5307 1096.2434
343032.2288 1096.1964
342987.9095 1096.1493
342983.7414 1096.1449
342943.5532 1096.1022
342899.1774 1096.0550
342854.7842 1096.0078
342819.4920 1095.9702
342810.3692 1095.9605
342765.9194 1095.9132
342721.4523 1095.8658
342676.9679 1095.8184
342655.1232 1095.7951
342632.4549 1095.7709
342587.9139 1095.7233
342543.3555 1095.6758
342498.7798 1095.6281
342490.6357 1095.6194
342454.1689 1095.5804
342409.5366 1095.5327
342364.8870 1095.4849
342326.0304 1095.4433
342320.2172 1095.4371
342275.5110 1095.3891
342230.7876 1095.3412
342186.0468 1095.2932
342161.3083 1095.2667
342141.2789 1095.2452
342096.4816 1095.1970
342051.6671 1095.1489
342006.8352 1095.1007
341996.4704 1095.0896
341961.9692 1095.0524
341917.0809 1095.0041
341872.1754 1094.9558
341831.5178 1094.9120
341827.2505 1094.9074
341782.2885 1094.8589
341737.3093 1094.8104
341692.3129 1094.7618
341666.4517 1094.7339
341647.2899 1094.7132
341602.2371 1094.6645
341557.1671 1094.6158
341512.0800 1094.5670
341501.2732 1094.5554
341466.9590 1094.5182
341421.8156 1094.4693
341376.6550 1094.4204
341335.9837 1094.3763
341331.4752 1094.3715
341286.2583 1094.3224
341241.0244 1094.2733
341195.7735 1094.2242
341170.5843 1094.1969
341150.4957 1094.1750
341105.1885 1094.1258
341059.8644 1094.0765
341014.5232 1094.0272
341005.0765 1094.0169
340969.1475 1093.9778
340923.7502 1093.9284
340878.3360 1093.8789
340839.4614 1093.8365
340832.9016 1093.8294
340787.4313 1093.7798
340741.9441 1093.7301
340696.4400 1093.6805
340673.7405 1093.6557
340650.9078 1093.6307
340605.3477 1093.5809
340559.7708 1093.5311
340514.1770 1093.4812
340507.9151 1093.4744
340468.5472 1093.4312
340422.8975 1093.3813
340377.2310 1093.3312
340341.9865 1093.2926
340331.5427 1093.2811
340285.8204 1093.2310
340240.0813 1093.1808
340194.3255 1093.1306
340175.9560 1093.1104
340148.5397 1093.0803
340102.7281 1093.0299
340056.8999 1092.9795
340011.0550 1092.9291
340009.8250 1092.9278
339965.1716 1092.8786
339919.2710 1092.8280
339873.3538 1092.7775
339843.5947 1092.7447
339827.4121 1092.7268
339781.4392 1092.6761
339735.4498 1092.6254
339689.4438 1092.5746
339677.2664 1092.5612
339643.4047 1092.5238
339597.3431 1092.4728
339551.2650 1092.4219
339510.8412 1092.3772
339505.1676 1092.3709
339459.0339 1092.3199
339412.8837 1092.2688
339366.7171 1092.2177
339344.3203 1092.1929
339320.5223 1092.1665
339274.3002 1092.1152
339228.0616 1092.0639
339181.8065 1092.0126
339177.7048 1092.0081
339135.5145 1091.9612
339089.2040 1091.9098
339042.8770 1091.8583
339010.9957 1091.8228
338996.5266 1091.8068
338950.1443 1091.7551
338903.7455 1091.7035
338857.3303 1091.6518
338844.1939 1091.6372
338810.8825 1091.6001
338764.4120 1091.5483
338717.9250 1091.4965
338677.3004 1091.4512
338671.4188 1091.4446
338624.8764 1091.3927
338578.3176 1091.3407
338531.7425 1091.2887
338510.3159 1091.2647
338485.1387 1091.2366
338438.5081 1091.1844
338391.8612 1091.1322
338345.1979 1091.0800
338343.2410 1091.0778
338298.4964 1091.0277
338251.7776 1090.9754
338205.0424 1090.9230
338176.0764 1090.8906
338158.2822 1090.8706
338111.4915 1090.8181
338064.6844 1090.7656
338017.8610 1090.7130
338008.8225 1090.7029
337971.0027 1090.6604
337924.1237 1090.6077
337877.2282 1090.5550
337841.4797 1090.5148
337830.3109 1090.5022
337783.3597 1090.4494
337736.3921 1090.3965
337689.4081 1090.3436
337674.0482 1090.3263
337642.3922 1090.2906
337595.3524 1090.2375
337548.2961 1090.1845
337506.5281 1090.1374
337501.2207 1090.1314
337454.1085 1090.0782
337406.9798 1090.0249
337359.8345 1089.9717
337338.9195 1089.9480
337312.6599 1089.9183
337265.4585 1089.8649
337218.2406 1089.8115
337171.2221 1089.7583
337171.0059 1089.7581
337123.7317 1089.7045
337076.4409 1089.6509
337029.1334 1089.5973
337003.4357 1089.5682
336981.7987 1089.5436
336934.4347 1089.4899
336887.0540 1089.4361
336839.6566 1089.3823
336835.5599 1089.3776
336792.2213 1089.3284
336744.7671 1089.2744
336697.2962 1089.2204
336667.5943 1089.1866
336649.7997 1089.1664
336602.2719 1089.1123
336554.7271 1089.0581
336507.1655 1089.0040
336499.5382 1088.9953
336459.5674 1088.9497
336411.9485 1088.8954
336364.3127 1088.8410
336331.3912 1088.8035
336316.6526 1088.7866
336268.9594 1088.7322
336221.2491 1088.6776
336173.5216 1088.6231
336163.1524 1088.6112
336125.7588 1088.5685
336077.9737 1088.5138
336030.1713 1088.4591
335994.8212 1088.4186
335982.3456 1088.4043
335934.4854 1088.3494
335886.6078 1088.2946
335838.7129 1088.2396
335826.3968 1088.2255
335790.7832 1088.1846
335742.8300 1088.1296
335694.8594 1088.0745
335657.8782 1088.0320
335646.8660 1088.0194
335598.8369 1087.9641
335550.7903 1087.9089
335502.7260 1087.8536
335489.2647 1087.8381
335454.6273 1087.7982
335406.5043 1087.7428
335358.3635 1087.6873
335320.5553 1087.6437
335310.2000 1087.6318
335262.0003 1087.5761
335213.7827 1087.5205
335165.5473 1087.4648
335151.7492 1087.4489
335117.2771 1087.4091
335068.9823 1087.3532
335020.6696 1087.2974
334982.8454 1087.2536
334972.3337 1087.2415
334923.9613 1087.1855
334875.5708 1087.1294
334827.1623 1087.0734
334813.8430 1087.0579
334778.7184 1087.0172
334730.2499 1086.9610
334681.7632 1086.9047
334644.7412 1086.8618
334633.2526 1086.8484
334584.7056 1086.7920
334536.1403 1086.7356
334487.5566 1086.6791
334475.5390 1086.6652
334438.9367 1086.6226
334390.2925 1086.5660
334341.6298 1086.5093
334306.2355 1086.4681
334292.9421 1086.4526
334244.2186 1086.3958
334195.4766 1086.3390
334146.7159 1086.2821
334136.8300 1086.2706
334097.9175 1086.2251
334049.0957 1086.1681
334000.2551 1086.1111
333967.3216 1086.0726
333951.3880 1086.0540
333902.4861 1085.9968
333853.5653 1085.9395
333804.6257 1085.8822
333797.7094 1085.8741
333755.6466 1085.8249
333706.6453 1085.7674
333657.6250 1085.7100
333627.9929 1085.6752
333608.5762 1085.6524
333559.4940 1085.5948
333510.3926 1085.5372
333461.2722 1085.4795
333458.1711 1085.4758
333412.1102 1085.4217
333362.9275 1085.3638
333313.7257 1085.3059
333288.2435 1085.2759
333264.4930 1085.2480
333215.2287 1085.1899
333165.9450 1085.1319
333118.2095 1085.0756
333116.6413 1085.0738
333067.2950 1085.0155
333017.9293 1084.9573
332968.5441 1084.8990
332948.0685 1084.8748
332919.1255 1084.8406
332869.6773 1084.7821
332820.2097 1084.7236
332777.8198 1084.6735
332770.7191 1084.6651
332721.1883 1084.6064
332671.6379 1084.5477
332622.0679 1084.4890
332607.4632 1084.4717
332572.4612 1084.4302
332522.8277 1084.3713
332473.1745 1084.3123
332436.9980 1084.2694
332423.4950 1084.2534
332373.7782 1084.1943
332324.0416 1084.1351
332274.2852 1084.0760
332266.4240 1084.0666
332224.4885 1084.0167
332174.6682 1083.9574
332124.8281 1083.8980
332095.7409 1083.8634
332074.9579 1083.8386
332025.0536 1083.7791
331975.1294 1083.7195
331925.1852 1083.6599
331924.9482 1083.6596
331875.1968 1083.6002
331825.1883 1083.5404
331775.1598 1083.4806
331754.0459 1083.4554
331725.0971 1083.4208
331675.0040 1083.3608
331624.8909 1083.3008
331583.0336 1083.2507
331574.7537 1083.2408
331524.5759 1083.1806
331474.3779 1083.1204
331424.1598 1083.0602
331411.9113 1083.0455
331373.9030 1082.9998
331323.6200 1082.9394
331273.3167 1082.8790
331240.6787 1082.8397
331222.9847 1082.8185
331172.6164 1082.7579
331122.2278 1082.6972
331071.8190 1082.6365
331069.3358 1082.6335
331021.3664 1082.5757
330970.8923 1082.5149
330920.3979 1082.4540
330897.8826 1082.4268
330869.8694 1082.3930
330819.3095 1082.3320
330768.7293 1082.2709
330726.3189 1082.2196
330718.1246 1082.2097
330667.4787 1082.1485
330616.8125 1082.0872
330566.1257 1082.0258
330554.6446 1082.0119
330515.3993 1081.9644
330464.6468 1081.9029
330413.8737 1081.8413
330382.8598 1081.8037
330363.0705 1081.7797
330312.2315 1081.7180
330261.3720 1081.6563
330210.9643 1081.5950
330210.4916 1081.5945
330159.5660 1081.5325
330108.6197 1081.4706
330057.6528 1081.4086
330038.9582 1081.3858
330006.6495 1081.3465
329955.6163 1081.2843
329904.5624 1081.2221
329866.8413 1081.1761
329853.4813 1081.1598
329802.3610 1081.0975
329751.2200 1081.0351
329700.0581 1080.9726
329694.6136 1080.9659
329648.8531 1080.9100
329597.6247 1080.8474
329546.3754 1080.7847
329522.2750 1080.7552
329495.0919 1080.7220
329443.7758 1080.6591
329392.4389 1080.5963
329349.8253 1080.5440
329341.0767 1080.5333
329289.6728 1080.4703
329238.2479 1080.4072
329186.8020 1080.3440
329177.2646 1080.3323
329135.3147 1080.2808
329083.8017 1080.2175
329032.2676 1080.1542
329004.5927 1080.1201
328980.7008 1080.0907
328929.0995 1080.0272
328877.4770 1079.9637
328831.8093 1079.9074
328825.8305 1079.9000
328774.1405 1079.8363
328722.4294 1079.7726
328670.6970 1079.7087
328658.9146 1079.6942
328618.9240 1079.6448
328567.1240 1079.5808
328515.3027 1079.5168
328485.9081 1079.4805
328463.4492 1079.4527
328411.5600 1079.3885
328359.6495 1079.3242
328312.7898 1079.2662
328307.7152 1079.2600
328255.7367 1079.1955
328203.7368 1079.1311
328151.7154 1079.0666
328139.5596 1079.0515
328099.6532 1079.0020
328047.5636 1078.9373
327995.4525 1078.8726
327966.2172 1078.8362
327943.3087 1078.8078
327891.1292 1078.7429
327838.9281 1078.6779
327792.7624 1078.6205
327786.7024 1078.6129
327734.4327 1078.5478
327682.1413 1078.4827
327629.8283 1078.4175
327619.1952 1078.4042
327577.4734 1078.3521
327525.0915 1078.2868
327472.6879 1078.2213
327445.5153 1078.1874
327420.2503 1078.1558
327367.7777 1078.0902
327315.2833 1078.0246
327271.7224 1077.9701
327262.7627 1077.9589
327210.1991 1077.8931
327157.6136 1077.8272
327105.0063 1077.7613
327097.8166 1077.7523
327052.3549 1077.6953
326999.6782 1077.6292
326946.9794 1077.5630
326923.7977 1077.5339
326894.2444 1077.4968
326841.4760 1077.4305
326788.6857 1077.3641
326749.6655 1077.3151
326735.8666 1077.2977
326683.0065 1077.2312
326630.1243 1077.1646
326577.2201 1077.0980
326575.4200 1077.0957
326524.2688 1077.0312
326471.2946 1076.9644
326418.2982 1076.8976
326401.0612 1076.8758
326365.2622 1076.8306
326312.1956 1076.7636
326259.1069 1076.6965
326226.5890 1076.6554
326205.9859 1076.6293
326152.8268 1076.5621
326099.6455 1076.4948
326052.0034 1076.4345
326046.4393 1076.4274
325993.1875 1076.3599
325939.9134 1076.2924
325886.6171 1076.2248
325877.3047 1076.2130
325833.2769 1076.1571
325779.9099 1076.0894
325726.5206 1076.0216
325702.4929 1075.9911
325673.0946 1075.9537
325619.6345 1075.8857
325566.1520 1075.8177
325527.5682 1075.7686
325512.6398 1075.7496
325459.0865 1075.6813
325405.5107 1075.6131
325352.5308 1075.5456
325351.9122 1075.5448
325298.2655 1075.4763
325244.5963 1075.4078
325190.9046 1075.3393
325177.3814 1075.3220
325137.1709 1075.2706
325083.4082 1075.2019
325029.6230 1075.1332
325002.1201 1075.0980
324975.8024 1075.0643
324921.9460 1074.9953
324868.0671 1074.9263
324826.7474 1074.8734
324814.1596 1074.8573
324760.2095 1074.7881
324706.2368 1074.7189
324652.2417 1074.6496
324651.2638 1074.6483
324598.1981 1074.5802
324544.1316 1074.5107
324490.0426 1074.4412
324475.6701 1074.4227
324435.9117 1074.3716
324381.7513 1074.3019
324327.5684 1074.2322
324299.9667 1074.1966
324273.3500 1074.1623
324219.0957 1074.0924
324164.8188 1074.0225
324124.1543 1073.9700
324110.5128 1073.9524
324056.1644 1073.8823
324001.7935 1073.8121
323948.2335 1073.7429
323947.3997 1073.7418
323892.9573 1073.6714
323838.4925 1073.6010
323784.0051 1073.5305
323772.2055 1073.5153
323729.4744 1073.4599
323674.9154 1073.3893
323620.3340 1073.3186
323596.0707 1073.2871
323565.7154 1073.2478
323511.0624 1073.1769
323456.3869 1073.1059
323419.8300 1073.0585
323401.6802 1073.0349
323346.9332 1072.9638
323292.1637 1072.8926
323243.4843 1072.8294
323237.3688 1072.8214
323182.5278 1072.7500
323127.6643 1072.6786
323072.7784 1072.6072
323067.0345 1072.5997
323017.8461 1072.5356
322962.8886 1072.4640
322907.9088 1072.3923
322890.4816 1072.3696
322852.8882 1072.3205
322797.8368 1072.2487
322742.7629 1072.1767
322713.8265 1072.1390
322687.6540 1072.1047
322632.5086 1072.0327
322577.3409 1071.9605
322537.0700 1071.9078
322522.1436 1071.8883
322466.9043 1071.8160
322411.6427 1071.7436
322360.2131 1071.6762
322356.3570 1071.6712
322301.0238 1071.5986
322245.6684 1071.5260
322190.2907 1071.4534
322183.2570 1071.4442
322134.8672 1071.3806
322079.4179 1071.3078
322023.9465 1071.2349
322006.2025 1071.2116
321968.4344 1071.1619
321912.8914 1071.0889
321857.3262 1071.0157
321829.0506 1070.9785
321801.7256 1070.9425
321746.0889 1070.8693
321690.4300 1070.7959
321651.8022 1070.7450
321634.7407 1070.7225
321579.0103 1070.6490
321523.2579 1070.5754
321474.4583 1070.5110
321467.4798 1070.5018
321411.6559 1070.4280
321355.8098 1070.3543
321299.9416 1070.2804
321297.0200 1070.2765
321244.0255 1070.2064
321188.0858 1070.1324
321132.1241 1070.0583
321119.4881 1070.0416
321076.1192 1069.9842
321020.0860 1069.9099
320964.0308 1069.8356
320941.8635 1069.8062
320907.9370 1069.7612
320851.8103 1069.6867
320795.6616 1069.6122
320764.1471 1069.5703
320739.4789 1069.5376
320683.2587 1069.4629
320627.0165 1069.3881
320586.3397 1069.3340
320570.7448 1069.3133
320514.4312 1069.2383
320458.0956 1069.1633
320408.4422 1069.0972
320401.7347 1069.0883
320345.3276 1069.0131
320288.8986 1068.9379
320232.4476 1068.8627
320230.4554 1068.8600
320175.9480 1068.7873
320119.4255 1068.7118
320062.8810 1068.6363
320052.3801 1068.6223
320006.2921 1068.5607
319949.6761 1068.4850
319893.0382 1068.4093
319874.2169 1068.3842
319836.3598 1068.3335
319779.6503 1068.2576
319722.9188 1068.1816
319695.9664 1068.1456
319666.1509 1068.1056
319609.3478 1068.0295
319552.5228 1067.9533
319517.6292 1067.9065
319495.6651 1067.8770
319438.7684 1067.8007
319381.8497 1067.7243
319339.2060 1067.6670
319324.9021 1067.6478
319267.9117 1067.5712
319210.8993 1067.4946
319160.6971 1067.4271
319153.8617 1067.4179
319096.7775 1067.3411
319039.6713 1067.2642
318982.5432 1067.1873
318982.1031 1067.1867
318925.3653 1067.1102
318868.1653 1067.0331
318810.9432 1066.9560
318803.4245 1066.9459
318753.6748 1066.8787
318696.3807 1066.8014
318639.0647 1066.7240
318624.6616 1066.7046
318581.7055 1066.6465
318524.3173 1066.5690
318466.9071 1066.4914
318445.8148 1066.4629
318409.4570 1066.4137
318351.9745 1066.3359
318294.4700 1066.2581
318266.8842 1066.2207
318236.9288 1066.1801
318179.3519 1066.1021
318121.7529 1066.0240
318087.8704 1065.9781
318064.1202 1065.9459
318006.4488 1065.8676
317948.7553 1065.7893
317908.7734 1065.7351
317891.0309 1065.7110
317833.2648 1065.6325
317775.4766 1065.5540
317729.5936 1065.4916
317717.6603 1065.4754
317659.7993 1065.3966
317601.9161 1065.3179
317550.3311 1065.2477
317544.0077 1065.2391
317486.0517 1065.1601
317428.0734 1065.0811
317370.9862 1065.0033
317370.0725 1065.0021
317312.0213 1064.9229
317253.9478 1064.8436
317195.8520 1064.7644
317191.5592 1064.7585
317137.7076 1064.6850
317079.5386 1064.6055
317021.3474 1064.5260
317012.0501 1064.5133
316963.1098 1064.4463
316904.8453 1064.3666
316846.5584 1064.2869
316832.4590 1064.2676
316788.2274 1064.2070
316729.8671 1064.1271
316671.4844 1064.0471
316652.7862 1064.0215
316613.0597 1063.9670
316554.6034 1063.8868
316496.1246 1063.8066
316473.0316 1063.7749
316437.6059 1063.7263
316379.0534 1063.6458
316320.4784 1063.5654
316293.1956 1063.5279
316261.8655 1063.4848
316203.2166 1063.4042
316144.5451 1063.3235
316113.2781 1063.2804
316085.8376 1063.2427
316027.0921 1063.1618
315968.3241 1063.0808
315933.2792 1063.0326
315909.5217 1062.9998
315850.6794 1062.9187
315791.8145 1062.8375
315753.1992 1062.7842
315732.9169 1062.7562
315673.9776 1062.6749
315615.0157 1062.5935
315573.0380 1062.5355
315556.0226 1062.5120
315496.9861 1062.4304
315437.9269 1062.3487
315392.7959 1062.2863
315378.8381 1062.2670
315319.7042 1062.1851
315260.5476 1062.1032
315212.4729 1062.0366
315201.3626 1062.0212
315142.1312 1061.9391
315082.8768 1061.8570
315032.0691 1061.7865
315023.5955 1061.7748
314964.2662 1061.6925
314904.9141 1061.6101
314851.5847 1061.5360
314845.5361 1061.5276
314786.1088 1061.4450
314726.6586 1061.3624
314671.0198 1061.2851
314667.1836 1061.2797
314607.6581 1061.1969
314548.1097 1061.1140
314490.3746 1061.0337
314488.5373 1061.0311
314428.9135 1060.9480
314369.2666 1060.8649
314309.6491 1060.7818
314309.5967 1060.7817
314249.8742 1060.6984
314190.1287 1060.6151
314130.3601 1060.5316
314128.8436 1060.5295
314070.5397 1060.4481
314010.6954 1060.3645
313950.8279 1060.2808
313947.9583 1060.2768
313890.9092 1060.1970
313830.9659 1060.1131
313770.9994 1060.0292
313766.9932 1060.0236
313710.9821 1059.9452
313650.9396 1059.8611
313590.8739 1059.7769
313585.9486 1059.7700
313530.7577 1059.6926
313470.6158 1059.6083
313410.4507 1059.5239
313404.8246 1059.5160
313350.2354 1059.4393
313289.9940 1059.3547
313229.7293 1059.2701
313223.6215 1059.2615
313169.4145 1059.1853
313109.0734 1059.1004
313048.7089 1059.0155
313042.3394 1059.0066
312988.2944 1058.9305
312927.8534 1058.8454
312867.3890 1058.7602
312860.9786 1058.7512
312806.8745 1058.6749
312746.3334 1058.5896
312685.7689 1058.5042
312679.5392 1058.4954
312625.1540 1058.4186
312564.5127 1058.3330
312503.8479 1058.2474
312498.0214 1058.2391
312443.1324 1058.1616
312382.3906 1058.0757
312321.6253 1057.9898
312316.4255 1057.9825
312260.8090 1057.9038
312199.9666 1057.8177
312139.1006 1057.7315
312134.7515 1057.7254
312078.1830 1057.6452
312017.2398 1057.5588
311956.2729 1057.4724
311952.9997 1057.4678
311895.2539 1057.3859
311834.2096 1057.2993
311773.1417 1057.2126
311771.1701 1057.2098
311712.0208 1057.1258
311650.8753 1057.0389
311589.7061 1056.9520
311589.2630 1056.9514
311528.4832 1056.8649
311467.2362 1056.7778
311407.2784 1056.6925
311405.9649 1056.6906
311344.6401 1056.6033
311283.2916 1056.5159
311225.2166 1056.4332
311221.9176 1056.4285
311160.4910 1056.3409
311099.0406 1056.2533
311043.0775 1056.1734
311037.5636 1056.1656
310976.0350 1056.0777
310914.4825 1055.9898
310860.8612 1055.9132
310852.9022 1055.9019
310791.2714 1055.8138
310729.6166 1055.7256
310678.5679 1055.6526
310667.9326 1055.6374
310606.1993 1055.5490
310544.4420 1055.4606
310496.1977 1055.3916
310482.6540 1055.3722
310420.8181 1055.2835
310358.9581 1055.1949
310313.7505 1055.1301
310297.0657 1055.1061
310235.1269 1055.0172
310173.1639 1054.9283
310131.2265 1054.8681
310111.1669 1054.8393
310049.1249 1054.7502
309987.0587 1054.6610
309948.6259 1054.6057
309924.9567 1054.5717
309862.8114 1054.4823
309800.6418 1054.3928
309765.9485 1054.3429
309738.4344 1054.3033
309676.1855 1054.2136
309613.9123 1054.1239
309583.1946 1054.0796
309551.5992 1054.0341
309489.2465 1053.9442
309426.8694 1053.8542
309400.3642 1053.8159
309364.4502 1053.7641
309301.9934 1053.6739
309239.5123 1053.5837
309217.4574 1053.5518
309176.9866 1053.4933
309114.4256 1053.4029
309051.8401 1053.3123
309034.4741 1053.2872
308989.2076 1053.2217
308926.5421 1053.1310
308863.8520 1053.0402
308851.4144 1053.0222
308801.1124 1052.9493
308738.3420 1052.8583
308675.5471 1052.7673
308668.2784 1052.7567
308612.6999 1052.6761
308549.8245 1052.5848
308486.9245 1052.4935
308485.0661 1052.4908
308423.9694 1052.4021
308360.9887 1052.3106
308301.7776 1052.2245
308297.9815 1052.2190
308234.9200 1052.1272
308171.8337 1052.0354
308118.4128 1051.9577
308108.7179 1051.9436
308045.5506 1051.8516
307982.3586 1051.7595
307934.9716 1051.6905
307919.1338 1051.6674
307855.8605 1051.5751
307792.5623 1051.4828
307751.4541 1051.4228
307729.2281 1051.3904
307665.8485 1051.2978
307602.4440 1051.2052
307567.8602 1051.1547
307539.0001 1051.1125
307475.5139 1051.0197
307412.0026 1050.9268
307384.1899 1050.8861
307348.4485 1050.8338
307284.8555 1050.7407
307221.2373 1050.6476
307200.4430 1050.6171
307157.5726 1050.5543
307093.8723 1050.4609
307030.1469 1050.3675
307016.6196 1050.3477
306966.3712 1050.2739
306902.5634 1050.1803
306838.7305 1050.0866
306832.7195 1050.0778
306774.8433 1049.9927
306710.9278 1049.8988
306648.7429 1049.8074
306646.9861 1049.8048
306582.9879 1049.7107
306518.9644 1049.6165
306464.6896 1049.5366
306454.9105 1049.5222
306390.8041 1049.4278
306326.6721 1049.3333
306280.5596 1049.2654
306262.5057 1049.2387
306198.2906 1049.1440
306134.0500 1049.0493
306096.3526 1048.9937
306069.7705 1048.9544
306005.4465 1048.8594
305941.0969 1048.7644
305912.0686 1048.7215
305876.7040 1048.6692
305812.2708 1048.5740
305747.8118 1048.4787
305727.7075 1048.4489
305683.3049 1048.3832
305618.7622 1048.2877
305554.1936 1048.1921
305543.2692 1048.1759
305489.5724 1048.0963
305424.9198 1048.0005
305360.2413 1047.9046
305358.7536 1047.9024
305295.5052 1047.8085
305230.7424 1047.7124
305174.1609 1047.6284
305165.9495 1047.6162
305101.1022 1047.5199
305036.2289 1047.4235
304989.4908 1047.3540
304971.3204 1047.3270
304906.3624 1047.2304
304841.3782 1047.1337
304804.7430 1047.0792
304776.3537 1047.0369
304711.2846 1046.9400
304646.1892 1046.8430
304619.9176 1046.8038
304581.0482 1046.7459
304515.8676 1046.6487
304450.6608 1046.5514
304435.0142 1046.5281
304385.4027 1046.4540
304320.1104 1046.3565
304254.7917 1046.2589
304250.0329 1046.2518
304189.4161 1046.1612
304124.0117 1046.0634
304064.9736 1045.9751
304058.5776 1045.9656
303993.0873 1045.8675
303927.5704 1045.7695
303879.8363 1045.6980
303862.0180 1045.6713
303796.4150 1045.5730
303730.7853 1045.4746
303694.6206 1045.4204
303665.1141 1045.3761
303599.3980 1045.2775
303533.6552 1045.1788
303509.3263 1045.1423
303467.8647 1045.0800
303402.0352 1044.9811
303336.1788 1044.8821
303323.9533 1044.8638
303270.2685 1044.7830
303204.3252 1044.6838
303138.5013 1044.5848
303138.3548 1044.5846
303072.3243 1044.4851
303006.2668 1044.3856
302952.9708 1044.3053
302940.1758 1044.2860
302874.0309 1044.1863
302807.8588 1044.0865
302767.3609 1044.0254
302741.6466 1043.9866
302675.3869 1043.8865
302609.0999 1043.7864
302581.6715 1043.7450
302542.7660 1043.6862
302476.3910 1043.5858
302409.9887 1043.4854
302395.9023 1043.4641
302343.5325 1043.3849
302277.0419 1043.2842
302210.5238 1043.1835
302210.0532 1043.1828
302143.9449 1043.0826
302077.3383 1042.9817
302024.1243 1042.9010
302010.6973 1042.8806
301944.0018 1042.7794
301877.2787 1042.6782
301838.1150 1042.6187
301810.5140 1042.5768
301743.7018 1042.4753
301676.8618 1042.3737
301652.0249 1042.3359
301609.9728 1042.2720
301543.0434 1042.1702
301476.0861 1042.0683
301465.8538 1042.0527
301409.0722 1041.9663
301342.0252 1041.8641
301279.6014 1041.7690
301274.9478 1041.7619
301207.8108 1041.6596
301140.6458 1041.5571
301093.2678 1041.4848
301073.4425 1041.4546
301006.1871 1041.3519
300938.9035 1041.2491
300906.8521 1041.2002
300871.5738 1041.1463
300804.1996 1041.0433
300736.7970 1040.9402
300720.3540 1040.9150
300669.3403 1040.8370
300601.8467 1040.7336
300534.3247 1040.6303
300533.7733 1040.6294
300466.7403 1040.5267
300399.1270 1040.4230
300347.1101 1040.3433
300331.4772 1040.3193
300263.7725 1040.2154
300196.0390 1040.1115
300160.3638 1040.0567
300128.2606 1040.0074
300060.4354 1039.9032
299992.5814 1039.7989
299973.5340 1039.7696
299924.6738 1039.6945
299856.7276 1039.5899
299788.7527 1039.4853
299786.6206 1039.4820
299720.7153 1039.3805
299652.6479 1039.2757
299599.6239 1039.1940
299584.5439 1039.1707
299516.3840 1039.0656
299448.1950 1038.9604
299412.5435 1038.9054
299379.9603 1038.8551
299311.6784 1038.7497
299243.3674 1038.6442
299225.3789 1038.6164
299175.0016 1038.5385
299106.5975 1038.4327
299038.1641 1038.3269
299038.1303 1038.3268
298969.6666 1038.2209
298901.1399 1038.1148
298850.7983 1038.0368
298832.5745 1038.0086
298763.9542 1037.9022
298695.3044 1037.7958
298663.3821 1037.7463
298626.6066 1037.6892
298557.8630 1037.5825
298489.0900 1037.4758
298475.8817 1037.4553
298420.2592 1037.3689
298351.3921 1037.2618
298288.2974 1037.1638
298282.4925 1037.1547
298213.5312 1037.0474
298144.5403 1036.9401
298100.6296 1036.8717
298075.5069 1036.8326
298006.4215 1036.7250
297937.3065 1036.6173
297912.8777 1036.5792
297868.1389 1036.5095
297798.9292 1036.4015
297729.6897 1036.2935
297725.0419 1036.2863
297660.3875 1036.1853
297591.0531 1036.0770
297537.1230 1035.9928
297521.6810 1035.9686
297452.2515 1035.8601
297382.7922 1035.7514
297349.1206 1035.6988
297313.2847 1035.6427
297243.7301 1035.5338
297174.1456 1035.4248
297161.0346 1035.4043
297104.5022 1035.3157
297034.8222 1035.2065
296972.8656 1035.1093
296965.1083 1035.0972
296895.3327 1034.9877
296825.5270 1034.8781
296784.6141 1034.8138
296755.6765 1034.7684
296685.7750 1034.6586
296615.8435 1034.5486
296596.2795 1034.5179
296545.8560 1034.4386
296475.8284 1034.3284
296407.8622 1034.2214
296405.7696 1034.2181
296335.6459 1034.1077
296265.4920 1033.9972
296219.3634 1033.9245
296195.2955 1033.8865
296125.0453 1033.7757
296054.7648 1033.6649
296030.7822 1033.6270
295984.4303 1033.5538
295914.0533 1033.4427
295843.6460 1033.3315
295842.1189 1033.3291
295773.1731 1033.2201
295702.6691 1033.1086
295653.3749 1033.0307
295632.1239 1032.9970
295561.5231 1032.8853
295490.8919 1032.7734
295464.5495 1032.7317
295420.2076 1032.6615
295349.4794 1032.5494
295278.7208 1032.4372
295275.6428 1032.4323
295207.8970 1032.3248
295137.0412 1032.2124
295086.6561 1032.1324
295066.1444 1032.0998
294995.1913 1031.9871
294924.2077 1031.8743
294897.5889 1031.8320
294853.1708 1031.7614
294782.0897 1031.6483
294710.9781 1031.5352
294708.4414 1031.5311
294639.8007 1031.4218
294568.5914 1031.3084
294519.2148 1031.2297
294497.3403 1031.1949
294426.0332 1031.0812
294354.6954 1030.9674
294329.9085 1030.9279
294283.3031 1030.8535
294211.8674 1030.7394
294140.5226 1030.6255
294140.4010 1030.6253
294068.8671 1030.5110
293997.3026 1030.3966
293951.0586 1030.3227
293925.6943 1030.2821
293854.0314 1030.1674
293782.3378 1030.0527
293761.5156 1030.0193
293710.5872 1029.9378
293638.7951 1029.8227
293571.8940 1029.7155
293566.9696 1029.7076
293495.0788 1029.5923
293423.1571 1029.4769
293382.1948 1029.4112
293351.1886 1029.3614
293279.1681 1029.2458
293207.1167 1029.1300
293192.4172 1029.1064
293135.0047 1029.0141
293062.8541 1028.8981
293002.5619 1028.8011
292990.6665 1028.7820
292918.4167 1028.6657
292846.1359 1028.5493
292812.6292 1028.4954
292773.8040 1028.4328
292701.4237 1028.3161
292629.0123 1028.1994
292622.6185 1028.1891
292556.5356 1028.0825
292484.0245 1027.9655
292432.5310 1027.8824
292411.4713 1027.8483
292338.8602 1027.7310
292266.2179 1027.6137
292242.3659 1027.5751
292193.5191 1027.4961
292120.7766 1027.3785
292052.1232 1027.2674
292048.0006 1027.2607
291975.1578 1027.1428
291902.2835 1027.0248
291861.8038 1026.9592
291829.3610 1026.9066
291756.3861 1026.7883
291683.3796 1026.6699
291671.4066 1026.6505
291610.3100 1026.5513
291537.2026 1026.4327
291480.9323 1026.3413
291464.0548 1026.3139
291390.8462 1026.1949
291317.6059 1026.0759
291290.3806 1026.0316
291244.3099 1025.9567
291170.9681 1025.8374
291099.7507 1025.7215
291097.5933 1025.7179
291024.1497 1025.5983
290950.6741 1025.4786
290909.0438 1025.4108
290877.1501 1025.3588
290803.5724 1025.2388
290729.9627 1025.1187
290718.2583 1025.0996
290656.2887 1024.9985
290582.5765 1024.8781
290527.3948 1024.7880
290508.8224 1024.7576
290435.0074 1024.6370
290361.1601 1024.5162
290336.4527 1024.4758
290287.2549 1024.3953
290213.3045 1024.2743
290145.4314 1024.1632
290139.3184 1024.1532
290065.2645 1024.0318
289991.1782 1023.9104
289954.3318 1023.8500
289917.0398 1023.7889
289842.8497 1023.6672
289768.6269 1023.5454
289763.1522 1023.5364
289694.3355 1023.4234
289620.0086 1023.3013
289571.8939 1023.2222
289545.6352 1023.1791
289471.2039 1023.0567
289396.7397 1022.9342
289380.5556 1022.9076
289322.2122 1022.8115
289247.6433 1022.6888
289189.1377 1022.5924
289173.0331 1022.5659
289098.3592 1022.4428
289023.6523 1022.3196
288997.6401 1022.2768
288948.8868 1022.1963
288874.0746 1022.0729
288806.0621 1021.9606
288799.2257 1021.9493
288724.3079 1021.8255
288649.3570 1021.7017
288614.4048 1021.6439
288574.3518 1021.5777
288499.2949 1021.4535
288424.2048 1021.3293
288422.6667 1021.3267
288349.0427 1021.2048
288273.8464 1021.0803
288230.8494 1021.0090
288198.5998 1020.9556
288123.2971 1020.8307
288047.9609 1020.7058
288038.9514 1020.6908
287972.5564 1020.5806
287897.1136 1020.4554
287846.9739 1020.3721
287821.6239 1020.3300
287746.0742 1020.2044
287670.4909 1020.0788
287654.9160 1020.0529
287594.8424 1019.9529
287519.1519 1019.8270
287462.7784 1019.7332
287443.4175 1019.7009
287367.6198 1019.5746
287291.7882 1019.4483
287270.5611 1019.4129
287215.8940 1019.3218
287139.9549 1019.1951
287078.2640 1019.0922
287063.9743 1019.0683
286987.9274 1018.9413
286911.8465 1018.8143
286885.8876 1018.7709
286835.7053 1018.6870
286759.5165 1018.5596
286693.4315 1018.4491
286683.2883 1018.4322
286606.9913 1018.3045
286530.6602 1018.1767
286500.8968 1018.1268
286454.2705 1018.0487
286377.8310 1017.9206
286308.2826 1017.8041
286301.3537 1017.7924
286224.8057 1017.6640
286148.2234 1017.5355
286115.5903 1017.4808
286071.5838 1017.4069
285994.8929 1017.2780
285922.8190 1017.1569
285918.1652 1017.1491
285841.3652 1017.0200
285764.5311 1016.8908
285729.9702 1016.8326
285687.6403 1016.7614
285610.6969 1016.6318
285537.0428 1016.5078
285533.7175 1016.5022
285456.6649 1016.3723
285379.5780 1016.2424
285344.0386 1016.1825
285302.4347 1016.1123
285225.2383 1015.9820
285150.9564 1015.8566
285148.0059 1015.8516
285070.6998 1015.7211
284993.3593 1015.5904
284957.7981 1015.5303
284915.9623 1015.4595
284838.5120 1015.3285
284764.5624 1015.2034
284761.0254 1015.1974
284683.4652 1015.0661
284605.8705 1014.9347
284571.2513 1014.8761
284528.2185 1014.8031
284450.5137 1014.6714
284377.8635 1014.5482
284372.7716 1014.5396
284294.9566 1014.4075
284217.1069 1014.2754
284184.4010 1014.2198
284139.1988 1014.1431
284061.2387 1014.0106
283990.8627 1013.8910
283983.2400 1013.8780
283905.1694 1013.7452
283827.0642 1013.6123
283797.2503 1013.5616
283748.8987 1013.4793
283670.6828 1013.3461
283603.5629 1013.2317
283592.4262 1013.2128
283514.0994 1013.0792
283435.7379 1012.9456
283409.8020 1012.9014
283357.3139 1012.8118
283278.8413 1012.6778
283215.9671 1012.5705
283200.3258 1012.5438
283121.7420 1012.4095
283043.1236 1012.2751
283022.0591 1012.2391
282964.4397 1012.1406
282885.7099 1012.0059
282828.0781 1011.9072
282806.9341 1011.8710
282728.0927 1011.7360
282649.2166 1011.6009
282634.0244 1011.5749
282570.2717 1011.4656
282491.2838 1011.3302
282439.8987 1011.2420
282412.2464 1011.1946
282333.1467 1011.0588
282254.0121 1010.9229
282245.7005 1010.9087
282174.8048 1010.7869
282095.5581 1010.6507
282051.4313 1010.5748
282016.2577 1010.5143
281936.8988 1010.3778
281857.5049 1010.2412
281857.0898 1010.2405
281778.0338 1010.1043
281698.5274 1009.9674
281662.6782 1009.9056
281618.9626 1009.8303
281539.3436 1009.6930
281468.1946 1009.5703
281459.6849 1009.5556
281379.9530 1009.4180
281300.1860 1009.2803
281273.6410 1009.2344
281220.3553 1009.1424
281140.4751 1009.0043
281079.0163 1008.8981
281060.5498 1008.8662
280980.5563 1008.7278
280900.5275 1008.5893
280884.3212 1008.5613
280820.4292 1008.4507
280740.2867 1008.3119
280689.5559 1008.2240
280660.0931 1008.1729
280579.8369 1008.0338
280499.5451 1007.8945
280494.7196 1007.8862
280419.1773 1007.7551
280338.7714 1007.6155
280299.8139 1007.5478
280258.3076 1007.4757
280177.7872 1007.3358
280104.8370 1007.2090
280097.2271 1007.1958
280016.5921 1007.0556
279935.9213 1006.9152
279909.7906 1006.8697
279855.1854 1006.7747
279774.3995 1006.6340
279714.6734 1006.5299
279693.5665 1006.4932
279612.6654 1006.3521
279531.7284 1006.2110
279519.4859 1006.1896
279450.7184 1006.0697
279369.6657 1005.9282
279324.2286 1005.8489
279288.5578 1005.7865
279207.3893 1005.6447
279128.9002 1005.5076
279126.1832 1005.5028
279044.8986 1005.3607
278963.5778 1005.2184
278933.5027 1005.1658
278882.1931 1005.0759
278800.7559 1004.9333
278738.0344 1004.8235
278719.2721 1004.7906
278637.7183 1004.6476
278556.1279 1004.5046
278542.4962 1004.4807
278474.4645 1004.3613
278392.7573 1004.2179
278346.8884 1004.1374
278310.9941 1004.0744
278229.1697 1003.9306
278151.2100 1003.7936
278147.3065 1003.7867
278065.3646 1003.6426
277983.3861 1003.4984
277955.4629 1003.4493
277901.3417 1003.3540
277819.2454 1003.2095
277759.6459 1003.1045
277737.1003 1003.0648
277654.8862 1002.9199
277572.6352 1002.7749
277563.7593 1002.7592
277490.3078 1002.6297
277407.9387 1002.4843
277367.8044 1002.4135
277325.5098 1002.3388
277243.0224 1002.1930
277171.7800 1002.0672
277160.4919 1002.0472
277077.8859 1001.9011
276995.2429 1001.7550
276975.6877 1001.7204
276912.5289 1001.6086
276829.7671 1001.4621
276779.5271 1001.3731
276746.9507 1001.3154
276664.0701 1001.1685
276583.2981 1001.0253
276581.1512 1001.0215
276498.1515 1000.8743
276415.1147 1000.7269
276387.0027 1000.6770
276332.0110 1000.5794
276248.8549 1000.4317
276190.6398 1000.3283
276165.6481 1000.2839
276082.3726 1000.1358
275999.0599 999.9876
275994.2099 999.9790
275915.6676 999.8392
275832.2354 999.6907
275797.7150 999.6293
275748.7394 999.5420
275665.1876 999.3931
275601.1538 999.2790
275581.5879 999.2441
275497.9163 999.0949
275414.2074 998.9456
275404.5276 998.9283
275330.4211 998.7960
275246.5924 998.6463
275207.8375 998.5770
275162.7020 998.4964
275078.7533 998.3463
275011.0830 998.2253
274994.7585 998.1961
274910.6897 998.0457
274826.5837 997.8952
274814.2655 997.8731
274742.4016 997.7444
274658.1755 997.5936
274617.3859 997.5205
274573.8886 997.4425
274489.5424 997.2912
274420.4438 997.1673
274405.1506 997.1399
274320.6841 996.9883
274236.1805 996.8365
274223.4409 996.8137
274151.6007 996.6846
274066.9767 996.5325
274026.3779 996.4595
273982.2917 996.3803
273897.5475 996.2278
273829.2546 996.1050
273812.7572 996.0753
273727.8927 995.9225
273642.9910 995.7696
273632.0726 995.7499
273558.0121 995.6164
273472.9902 995.4632
273434.8331 995.3944
273387.9056 995.3097
273302.7634 995.1561
273237.5356 995.0384
273217.5732 995.0023
273132.3105 994.8483
273047.0109 994.6942
273040.1815 994.6819
272961.6316 994.5399
272876.2116 994.3854
272842.7726 994.3250
272790.7264 994.2308
272705.1861 994.0760
272645.3083 993.9676
272619.5948 993.9210
272533.9342 993.7658
272448.2366 993.6105
272447.7894 993.6097
272362.4559 993.4550
272276.6381 993.2994
272250.2185 993.2514
272190.7511 993.1435
272104.8129 992.9875
272052.5948 992.8927
272018.8197 992.8313
271932.7612 992.6749
271854.9190 992.5335
271846.6615 992.5185
271760.4828 992.3617
271674.2673 992.2049
271657.1932 992.1738
271587.9775 992.0478
271501.6418 991.8906
271459.4175 991.8137
271415.2454 991.7332
271328.7894 991.5757
271261.5922 991.4532
271242.2862 991.4180
271155.7099 991.2600
271069.0971 991.1020
271063.7185 991.0922
270982.4034 990.9437
270895.6702 990.7853
270865.7982 990.7308
270808.8696 990.6267
270722.0161 990.4680
270667.8306 990.3689
270635.1084 990.3091
270548.1346 990.1500
270469.8164 990.0066
270461.1196 989.9907
270374.0255 989.8312
270286.8949 989.6717
270271.7575 989.6439
270199.6887 989.5118
270112.4378 989.3519
270073.6541 989.2808
270025.1240 989.1918
269937.7526 989.0314
269875.5062 988.9172
269850.3311 988.8710
269762.8393 988.7103
269677.3145 988.5532
269675.3100 988.5495
269587.6976 988.3885
269500.0488 988.2273
269479.0811 988.1888
269412.3272 988.0660
269324.5577 987.9045
269280.8050 987.8239
269236.7278 987.7428
269148.8376 987.5809
269082.4868 987.4587
269060.8992 987.4189
268972.8881 987.2566
268884.8406 987.0943
268884.1268 987.0930
268796.7090 986.9317
268708.5405 986.7690
268685.7272 986.7269
268620.2998 986.6060
268532.0102 986.4430
268487.2867 986.3603
268443.6603 986.2797
268355.2494 986.1163
268288.8058 985.9934
268266.7900 985.9527
268178.2577 985.7889
268090.2848 985.6260
268089.6886 985.6249
268001.0348 985.4608
267912.3444 985.2965
267891.7257 985.2583
267823.5802 985.1320
267734.7681 984.9673
267693.1274 984.8901
267645.8935 984.8025
267556.9595 984.6374
267494.4902 984.5215
267467.9744 984.4723
267378.9184 984.3069
267295.8144 984.1525
267289.8224 984.1413
267200.6442 983.9756
267111.4293 983.8097
267097.1015 983.7831
267022.1366 983.6436
266932.7993 983.4773
266898.3513 983.4132
266843.3952 983.3109
266753.9354 983.1443
266699.5636 983.0430
266664.4195 982.9775
266574.8371 982.8105
266500.7388 982.6723
266485.2092 982.6434
266395.5039 982.4760
266305.7617 982.3085
266301.8775 982.3013
266215.9356 982.1408
266126.0704 981.9729
266102.9812 981.9298
266036.1317 981.8049
265946.1434 981.6366
265904.0489 981.5579
265856.0919 981.4682
265765.9803 981.2996
265705.0812 981.1857
265675.8157 981.1309
265585.5808 980.9619
265506.0784 980.8130
265495.3029 980.7928
265404.9445 980.6234
265314.5490 980.4540
265307.0416 980.4399
265224.0710 980.2843
265133.5519 980.1144
265107.9716 980.0664
265042.9601 979.9444
264952.3173 979.7742
264908.8680 979.6925
264861.6115 979.6038
264770.8448 979.4332
264709.7313 979.3183
264680.0248 979.2624
264589.1343 979.0914
264510.5622 978.9436
264498.1998 978.9203
264407.1853 978.7490
264316.1337 978.5775
264311.3615 978.5685
264224.9977 978.4058
264133.8221 978.2340
264112.1305 978.1931
